Time (s),Quaternion X,Quaternion Y,Quaternion Z,Quaternion W,Roll (rad),Pitch (rad),Yaw (rad),Gravity X (m/s^2),Gravity Y (m/s^2),Gravity Z (m/s^2),User Acceleration X (m/s^2),User Acceleration Y (m/s^2),User Acceleration Z (m/s^2),Rotation Rate X (rad/s),Rotation Rate Y (rad/s),Rotation Rate Z (rad/s),Magnetic Field X (µT),Magnetic Field Y (µT),Magnetic Field Z (µT),Magnetic Accuracy
0.00564491667,0.0476086127,0.0292425073,5.65103325E-18,0.998438002,0.0586930373,0.0952122869,-0.00279706268,0.572646195,-0.9323035,-9.74542309,0.247367179,0.744958316,1.12764385,0.188860849,0.455443412,-0.0363065638,25.2919388,3.16003418,-43.9138794,2
0.0156029167,0.0479147952,0.0310258113,8.46953457E-05,0.998369518,0.0622680469,0.095825182,-0.00281700361,0.607446765,-0.93828652,-9.7427413,0.403204917,0.824862312,2.08279236,-0.0620366335,0.261886984,0.0364608504,25.2747421,3.10481262,-43.929718,2
0.0255609167,0.0470765853,0.031879675,0.000430646003,0.998382381,0.0639423308,0.0941674344,-0.00215120624,0.62385656,-0.922102862,-9.74324983,0.285490428,0.63809186,2.27782978,-0.267959833,0.0948747024,0.0718429983,25.4212112,3.14528656,-43.924408,2
0.0355189167,0.0454378021,0.032051168,0.000838647391,0.998452625,0.0642362019,0.0909139322,-0.00124310399,0.626909079,-0.89033344,-9.74600819,-0.00726041946,0.260210587,1.79291919,-0.379931897,-0.00961975008,0.0641022548,25.4212112,3.14528656,-43.924408,2
0.0454769167,0.0435133134,0.0318947269,0.0011240124,0.998542999,0.0638840432,0.0870815466,-0.000532960583,0.623690117,-0.852899343,-9.74956209,-0.291495367,-0.223891757,0.878445799,-0.382327884,-0.0391189568,0.0252773203,25.5588303,3.46057129,-43.994873,2
0.0554349167,0.0418143049,0.0317132021,0.00115932047,0.998621343,0.0635067811,0.0836844869,-0.000337869053,0.620192265,-0.819706975,-9.75263199,-0.368951459,-0.546782453,-0.0414484472,-0.292354584,-0.0286713745,-0.0296117608,25.5327835,3.67923737,-43.903717,2
0.0653929167,0.0407143703,0.0316591365,0.000909837659,0.998668727,0.0634125608,0.0814680339,-0.000763242289,0.61938694,-0.798045033,-9.75447967,-0.329240357,-0.647004138,-0.726587597,-0.144024476,0.00239678589,-0.0824810937,25.3313522,3.62148285,-43.8322754,2
0.0753509167,0.0404080207,0.0317209548,0.000398258183,0.998679559,0.0635761683,0.0808225587,-0.00177388893,0.621015418,-0.791735922,-9.75489,-0.238392796,-0.608122692,-1.05777361,0.0251512285,0.0124813775,-0.12588051,25.3824921,3.71028137,-44.0656433,2
0.0853089167,0.040891759,0.0318557657,-0.000324068771,0.998655585,0.0639091346,0.0817439262,-0.00326344575,0.624216625,-0.800741578,-9.75395068,-0.106920086,-0.446187405,-1.07906423,0.172176167,0.034480229,-0.158385754,25.3273697,3.71291351,-43.8729248,2
0.0952669167,0.0419622449,0.0321399442,-0.00115951565,0.998601527,0.0645586979,0.0838307437,-0.00503080463,0.630443098,-0.821136205,-9.751854,-0.00929813583,-0.247275117,-0.822736187,0.257972836,0.0647089779,-0.164281189,25.247757,3.74686432,-43.8882751,2
0.105224917,0.0432480827,0.0324935043,-0.0019439263,0.998533937,0.0653496906,0.0863502966,-0.00671779626,0.638019452,-0.845755171,-9.74925696,0.0676708298,0.0272385739,-0.289780234,0.258243114,0.0595386848,-0.137969807,25.4145126,3.77203369,-43.7207947,2
0.115182417,0.044357493,0.0327093261,-0.00254679892,0.99847682,0.0658502182,0.0885288423,-0.00801913628,0.642776364,-0.867037759,-9.74707494,0.194295661,0.23242585,0.283843245,0.187965229,0.014225265,-0.0927807614,25.6421356,3.73754883,-43.7280884,2
0.125140417,0.0450276854,0.0326386261,-0.00291596468,0.998448209,0.065750931,0.0898461067,-0.00879776134,0.641732993,-0.879904401,-9.74599066,0.292453837,0.2747711,0.669422525,0.0823050588,-0.0508414023,-0.0470967442,25.708107,3.73142242,-43.7635193,2
0.135098417,0.0451279429,0.0322213602,-0.00309232801,0.998456649,0.0649308135,0.0900389196,-0.00912034866,0.633728915,-0.881787584,-9.74634429,0.356272741,0.239693868,0.843056506,-0.0406373739,-0.114499211,-0.0167984907,25.5415955,3.69271088,-43.8550415,2
0.145056417,0.0446246632,0.0315633122,-0.00315278784,0.998500163,0.0636079886,0.0890340251,-0.00914949015,0.620891645,-0.871972439,-9.74805343,0.308656345,0.111814581,0.842820359,-0.157711029,-0.146154374,-0.00346495607,25.4667816,3.6940918,-43.9875488,2
0.155014417,0.0436125369,0.0308020974,-0.00317855464,0.998568526,0.0620677768,0.0870141637,-0.00906916006,0.605984876,-0.852241025,-9.75073581,0.220911828,-0.0141595313,0.669079995,-0.243874148,-0.161616683,-0.00744158821,25.3756638,3.79646301,-44.0532532,2
0.164972417,0.0422696502,0.0300133658,-0.00321920684,0.998650236,0.0604694711,0.0843318778,-0.00899913468,0.590535451,-0.826033256,-9.75393899,0.153162709,-0.0412651265,0.439446479,-0.289435178,-0.151830867,-0.00980236661,25.3711777,3.85467529,-43.9814148,2
0.174930417,0.0408260196,0.0293620572,-0.00324907529,0.99872945,0.0591452263,0.081447517,-0.00891704412,0.577756779,-0.797844469,-9.75704981,0.121349411,-0.0347379898,0.14837036,-0.283047348,-0.11105787,-0.00658207247,25.2812424,3.736763,-43.9642639,2
0.184888417,0.0395903044,0.028894827,-0.00323449018,0.998792917,0.0581901346,0.078980197,-0.00877655336,0.568550414,-0.773726145,-9.75953286,0.0795293542,-0.0528708086,-0.254664497,-0.202026531,-0.0817966536,0.00663919095,25.3167877,3.95631409,-43.8479309,2
0.194846417,0.0389519879,0.0285363096,-0.0031578521,0.998828611,0.0574566887,0.0777106846,-0.00855732779,0.561448107,-0.7613147,-9.76091993,0.12059936,-0.0922170229,-0.771023535,-0.0504916012,-0.0609989651,0.0221433155,25.0541306,3.93096924,-44.0869141,2
0.204804417,0.0391046596,0.0282604406,-0.00303750065,0.998830872,0.056896063,0.0780253453,-0.00830348659,0.55596215,-0.764391112,-9.76099358,0.117256699,-0.0653482321,-0.953507762,0.107401207,-0.052587796,0.0322679318,25.1794891,4.09829712,-43.8439026,2
0.214762417,0.0399246164,0.0279333052,-0.00290658745,0.998808041,0.0562400759,0.0796759485,-0.00806236334,0.549487292,-0.780527715,-9.76008348,0.0613326763,0.058976359,-0.720085375,0.211483136,-0.0778694451,0.0341806151,25.0619431,4.11281586,-43.8893433,2
0.224720417,0.0410518255,0.0274492895,-0.00278870544,0.998776113,0.0552738618,0.0819417376,-0.00785069382,0.539957612,-0.802674957,-9.75881857,0.0594899345,0.169709063,-0.262561388,0.230765298,-0.111582324,0.0347377099,24.9623566,4.04071808,-43.9015808,2
0.234678417,0.042075984,0.0268202057,-0.00266173261,0.99875089,0.0540140289,0.0840028357,-0.00760066282,0.527572251,-0.822817947,-9.75781846,0.0807039144,0.211699069,0.16889117,0.173513457,-0.135511369,0.0372882187,24.8616409,3.80093384,-43.9245911,2
0.244636417,0.0427040585,0.0261002597,-0.00251786811,0.998743686,0.0525650973,0.0852726883,-0.00728511856,0.513377977,-0.835226324,-9.75752152,0.132157915,0.158416611,0.470114005,0.0733166263,-0.149060354,0.0383979157,24.8903198,3.75291443,-44.205658,2
0.254594417,0.0427969726,0.0253185485,-0.00236720521,0.998760207,0.0509850628,0.0854719887,-0.0069209753,0.497951641,-0.837173659,-9.75815397,0.173321956,0.0729755852,0.594197481,-0.0345999859,-0.160763353,0.0377291963,24.6932678,3.68643951,-44.2683716,2
0.264552417,0.0423899204,0.0245475627,-0.00220914471,0.998797099,0.0494204468,0.0846705332,-0.00651750747,0.48271626,-0.829342527,-9.75958839,0.138727978,0.0271365749,0.529940989,-0.12743035,-0.145086989,0.0343809612,24.6219559,3.62607574,-44.1020813,2
0.274510417,0.0415692866,0.0238653667,-0.00204329788,0.998848446,0.0480295511,0.0830407118,-0.00608703513,0.469205512,-0.81341562,-9.76158745,0.112884036,-0.0118345955,0.400558238,-0.20046328,-0.12834315,0.035743434,24.5761871,3.67024994,-44.0940552,2
0.284468417,0.0404338791,0.0232486572,-0.00184203707,0.998909984,0.0467650856,0.0807817922,-0.00557834546,0.456946663,-0.791337425,-9.76398341,0.123945784,-0.00892331117,0.305989026,-0.253856212,-0.116741113,0.0439526327,24.460495,3.88563538,-43.9601746,2
0.294426417,0.0391362349,0.0226910629,-0.00157655516,0.998975088,0.045614183,0.0782003788,-0.00494108464,0.445800634,-0.766102373,-9.76651088,0.158734554,-0.0015374387,0.0753811119,-0.266798109,-0.101814099,0.0592189394,24.5790024,3.99704742,-44.0652161,2
0.304384417,0.0378851279,0.0222242753,-0.00125795941,0.999034237,0.0446436246,0.0757134828,-0.00420950023,0.436405139,-0.741786408,-9.76881214,0.156308679,-0.0479996955,-0.224136672,-0.231914699,-0.08261507,0.0654368773,24.4447708,4.01206207,-43.9737549,2
0.314342417,0.0369438023,0.0219054843,-0.000943787301,0.999076827,0.0439742336,0.0738451413,-0.00351395966,0.429926079,-0.723515496,-9.77046926,0.0400849038,-0.130914052,-0.604354133,-0.142862052,-0.0349870995,0.0551038161,24.4777374,4.05318451,-44.0966492,2
0.324300417,0.0365208553,0.0218957,-0.000707396324,0.999092776,0.0439344771,0.0730093112,-0.00302086064,0.429564041,-0.715340884,-9.7710871,-0.12385511,-0.137592288,-0.87024145,-0.0298495907,0.0321569219,0.0364424363,24.3413925,4.05975342,-44.0490112,2
0.334258417,0.0365983821,0.0221184224,-0.000566610072,0.999085095,0.0443710906,0.0731700038,-0.00275856497,0.433825059,-0.716912518,-9.77078374,-0.168518318,-0.0641946051,-0.735571698,0.0514511243,0.053798832,0.016752623,24.5727234,4.09086609,-44.1154175,2
0.344215417,0.0369325785,0.0223578898,-0.000512088729,0.99906757,0.0448491159,0.0738404677,-0.00268200311,0.438474054,-0.723469757,-9.77009283,-0.114509336,-0.0178337629,-0.328649771,0.0749297738,0.0369156897,0.00750095164,24.4589081,4.08119202,-44.0895996,2
0.354173417,0.0372810653,0.0224458723,-0.000454417734,0.999052682,0.0450232894,0.0745401048,-0.00258877805,0.440152837,-0.730311951,-9.76950831,0.0093577936,-0.0353824982,0.0512941339,0.0626214445,0.000665810192,0.0179709028,24.5352631,4.05121613,-44.1312561,2
0.364131417,0.037511741,0.0224036457,-0.000322808976,0.99904507,0.0449301273,0.0750076899,-0.00233236108,0.43922732,-0.734884593,-9.76920728,0.0411086573,-0.0290142053,0.220233235,0.0301221702,-0.0107049998,0.036536824,24.4271927,3.97272491,-44.1066589,2
0.374089417,0.0375742563,0.0223611123,-0.000118591889,0.999043676,0.0448298421,0.0751420352,-0.00192278826,0.438243168,-0.736198379,-9.76915234,0.0114171007,-0.00899579188,0.268062323,-0.00721321721,-0.00410542032,0.0459716059,24.4957428,3.98765564,-44.0721741,2
0.384047417,0.0374644079,0.0222998166,0.000115567314,0.999049177,0.0446888024,0.07493283,-0.00144403668,0.436872208,-0.734152552,-9.76936802,0.0100945469,-0.00415814259,0.260197581,-0.0365650952,-0.0172274653,0.0468857922,24.4957428,3.98765564,-44.0721741,2
0.394005417,0.0372431592,0.0221758096,0.000340712967,0.999060152,0.0444223466,0.0745003212,-0.000973710009,0.434283142,-0.729922952,-9.76979999,0.0364760291,-0.0502864182,0.204216166,-0.0516886562,-0.0276329685,0.0425669439,24.509819,3.94609833,-44.212677,2
0.403963417,0.0369665591,0.0220340415,0.000521635909,0.999073499,0.0441235729,0.0739550023,-0.000588348406,0.431381648,-0.72458992,-9.77032547,0.0368336834,-0.103353772,0.128725749,-0.061684411,-0.0251238476,0.0300548039,24.5107346,4.07263947,-44.0403442,2
0.413921417,0.036619274,0.0219557644,0.000627796669,0.999087971,0.0439575417,0.0732648466,-0.000354511145,0.429781337,-0.717840081,-9.77089421,-0.0714000064,-0.115939478,0.0667459701,-0.0810000449,-0.000380950049,0.0104086641,24.4281158,3.89282227,-44.0155334,2
0.423879417,0.0361200774,0.0220104512,0.000651080841,0.999104915,0.0440636981,0.0722670412,-0.000289798685,0.430849916,-0.708080903,-9.7715594,-0.164196437,-0.115523372,0.119485042,-0.120050319,0.0203921497,-0.00536280172,24.4833298,3.94361115,-44.0525513,2
0.433837417,0.0354464791,0.0221013732,0.00061599512,0.99912702,0.044246105,0.0709177285,-0.000336763484,0.432674172,-0.694882545,-9.77242624,-0.244730036,-0.0580927811,0.0902747297,-0.147333339,0.0188459177,-0.0155459307,24.6102982,4.11949158,-43.9374084,2
0.443795417,0.0347256741,0.0222701043,0.000548752231,0.999148616,0.0445864652,0.0694725306,-0.000451207138,0.436044598,-0.68074486,-9.77327146,-0.292692505,-0.0719311176,-0.107149877,-0.137615174,0.0477343313,-0.020092899,24.5799103,4.08196259,-44.1382141,2
0.453753417,0.0341303462,0.0225227199,0.000458636244,0.999163463,0.0450967744,0.068277286,-0.000622361435,0.441068308,-0.669051354,-9.77385365,-0.184590186,-0.142132927,-0.299001651,-0.0984975845,0.0475945175,-0.0258160308,24.5140457,4.14484406,-44.1103516,2
0.463711417,0.0337604547,0.0226769791,0.00032125283,0.999172717,0.0454138333,0.0675309372,-0.000891227659,0.444189728,-0.661748995,-9.77420962,-0.0790746692,-0.148687098,-0.351169061,-0.0476821177,0.0114759076,-0.035566248,24.4347687,4.14130402,-44.1914978,2
0.473669417,0.0336459841,0.0226704215,0.000139617323,0.999176743,0.0454124777,0.0672936777,-0.0012493606,0.444183591,-0.659427566,-9.77436627,-0.063506221,-0.0986353655,-0.345624871,0.00192484981,-0.013624385,-0.038640067,24.4867859,4.21188354,-44.2354126,2
0.483627417,0.0337405947,0.0226089722,-4.51626625E-05,0.999174931,0.0453022304,0.0674746591,-0.00161961737,0.443100581,-0.661198375,-9.77429613,-0.0908543562,-0.00783025523,-0.339559872,0.033799693,-0.0109263118,-0.0327917635,24.4333115,4.18040466,-44.2219543,2
0.493585417,0.0339275127,0.0226217559,-0.000181982533,0.999168343,0.0453380243,0.0678423896,-0.00190304112,0.443439385,-0.664796327,-9.7740366,-0.129051473,0.0972220646,-0.268292625,0.0379486345,0.0150413737,-0.0200485401,24.5064011,4.28483582,-44.1838684,2
0.503543417,0.034062115,0.0227369795,-0.000244142089,0.99916113,0.0455738447,0.0681086252,-0.00204154853,0.445736227,-0.667401175,-9.77375486,-0.0933404009,0.13334581,-0.108761403,0.0139993178,0.0266840849,-0.00545532536,24.574852,4.29942322,-43.9744873,2
0.513501417,0.0340469222,0.0228561994,-0.000239318443,0.999158916,0.045812354,0.068078206,-0.00203932615,0.44806825,-0.667103581,-9.77366835,-0.00424384811,0.102671635,0.0662280837,-0.0204550624,0.0202285834,0.00621304847,24.5738068,4.35055542,-44.3345642,2
0.523459417,0.0338586702,0.0229526257,-0.000185195494,0.99916312,0.0460009495,0.0677038796,-0.0019287919,0.449922975,-0.663441113,-9.7738326,0.0551032073,0.0201502962,0.144503163,-0.0537370816,0.0212680735,0.0139033031,24.598938,4.36736298,-44.1847229,2
0.533417417,0.0335330082,0.0230549858,-9.40363968E-05,0.999171765,0.0461983108,0.0670563765,-0.00173803006,0.451871698,-0.657105699,-9.77417046,0.0624320524,-0.0427482047,0.102643213,-0.0742599368,0.0197881535,0.016106803,24.5720062,4.33557892,-44.2230835,2
0.543375417,0.0331504377,0.0231567603,-2.72943943E-06,0.999182197,0.0463943465,0.0662950789,-0.00154416059,0.453810849,-0.649656479,-9.77457845,0.0622885523,-0.0615698826,0.0315244346,-0.0788215473,0.0257244501,0.015362259,24.6887741,4.49834442,-44.0451355,2
0.553333417,0.0327961965,0.0233480638,9.58738476E-05,0.999189359,0.0467695659,0.0655907181,-0.00134275084,0.457499694,-0.642764089,-9.77486253,-0.00275178293,-0.0934516792,-0.100321492,-0.0638644323,0.0498833172,0.0179609712,24.766716,4.46353912,-44.0286255,2
0.563291417,0.0325054114,0.0235948497,0.000216723753,0.99919305,0.047254913,0.0650143809,-0.0011031537,0.462261245,-0.637124184,-9.77500749,-0.0281632876,-0.0696129769,-0.121125795,-0.0523357652,0.0463842973,0.0244756732,24.8845596,4.48886108,-44.0183411,2
0.573249417,0.0322740261,0.0237491973,0.000354427573,0.999196842,0.0475543144,0.0645578784,-0.0008264002,0.465201683,-0.632656829,-9.7751583,-0.0348446285,-0.0413097694,-0.04406126,-0.0408926941,0.0165875182,0.0277359169,24.6423187,4.45346832,-44.1710205,2
0.583207417,0.0321010218,0.023729694,0.000508003942,0.999202822,0.0475046911,0.0642191046,-0.000509346861,0.464726759,-0.629341494,-9.77539503,-0.049483139,-0.0351979354,0.0462573088,-0.0301909316,-0.022037521,0.0323366001,24.7545547,4.47232819,-44.0503845,2
0.593165417,0.0319815086,0.0235448575,0.000671755076,0.999210928,0.0471234324,0.0639878355,-0.000163885495,0.461006606,-0.627078152,-9.77571652,-0.0439672982,-0.0623011195,0.0328121363,-0.0211558938,-0.047372438,0.034986712,24.6044464,4.44561005,-44.09021,2
0.603123417,0.0318835021,0.0232911589,0.000837998276,0.999219907,0.0466041931,0.0637995686,0.000189867978,0.455936098,-0.625235666,-9.77607191,-0.0529627978,-0.104844961,0.00698152945,-0.0208999626,-0.0491319895,0.0330497958,24.7209625,4.53874969,-44.1880188,2
0.613081417,0.0317639777,0.0230755002,0.000989525492,0.999228566,0.0461621303,0.0635674174,0.000512620302,0.451621084,-0.622963702,-9.77641736,-0.0663050214,-0.151110453,0.0145095869,-0.0301786829,-0.03516078,0.0272070859,24.7252121,4.49537659,-44.2262573,2
0.623039417,0.0315730718,0.0229288139,0.00108829792,0.999237933,0.0458615336,0.0631899731,0.000728525034,0.448693068,-0.61926967,-9.77678678,-0.0772932292,-0.194308812,0.0849088187,-0.049941428,-0.0236809161,0.0115765762,24.7106476,4.45387268,-44.2341919,2
0.632997417,0.0312671777,0.0228215109,0.00111837738,0.999249876,0.0456440089,0.0625793302,0.000809533145,0.446583528,-0.61329308,-9.77726024,-0.0617163419,-0.242782409,0.154664492,-0.0678868741,-0.0216252226,-0.00212379009,24.7062607,4.45693207,-44.4000854,2
0.642955417,0.0309662866,0.0227176443,0.00107717346,0.999261667,0.0454378682,0.0619754546,0.00074722877,0.444584792,-0.607382614,-9.77772026,-0.0865027003,-0.237320527,0.0491810873,-0.0479045324,-0.0137344245,-0.0173740406,24.8927536,4.61524963,-44.2095947,2
0.652913417,0.0308189898,0.0227737465,0.000950878698,0.999265117,0.0455577576,0.0616750857,0.000497578169,0.445765307,-0.604442615,-9.77784885,-0.184947658,-0.222154339,-0.192953598,-0.00957605056,0.036950592,-0.0355410613,24.8505249,4.59568787,-44.2234192,2
0.662871417,0.0308945777,0.0230298822,0.00071541062,0.999257168,0.046085648,0.0618155684,6.77435181E-06,0.450922946,-0.605817666,-9.77752737,-0.29395383,-0.181873548,-0.316127558,0.0412659794,0.0620310605,-0.0617391802,24.7242508,4.5718689,-44.1552124,2
0.672829417,0.0312145211,0.0234512779,0.000350011604,0.999237555,0.0469536575,0.0624384221,-0.000766044163,0.459391974,-0.611913974,-9.77675346,-0.354945657,-0.188646037,-0.435564085,0.0882646441,0.101618946,-0.0869944766,24.6736526,4.64920044,-44.056427,2
0.682787417,0.0317032951,0.0239776917,-0.000132111215,0.999209734,0.048040799,0.0633925966,-0.00178794959,0.469992168,-0.621252734,-9.7756604,-0.291774477,-0.20803777,-0.307220614,0.108431809,0.0979649425,-0.108462669,24.7731171,4.64488983,-43.9914551,2
0.692745417,0.0322092378,0.0244066803,-0.000719744746,0.999182848,0.0489407059,0.0643751571,-0.00301680783,0.478759047,-0.630868703,-9.77461937,-0.146115384,-0.17328261,-0.0472936661,0.0944717899,0.0667556226,-0.126275495,24.8062363,4.50532532,-43.8963623,2
0.702703417,0.0325528183,0.0246932982,-0.00136273774,0.999164025,0.0495590263,0.0650297329,-0.00434005708,0.484782253,-0.637274479,-9.77390684,0.0102182098,-0.114653311,0.234060685,0.0455740206,0.0400198773,-0.130606055,24.8432999,4.5218811,-44.0639954,2
0.712661417,0.0325709879,0.0248593104,-0.00196717388,0.999158274,0.0499311745,0.0650351745,-0.00556220808,0.488419404,-0.63732767,-9.77372213,0.112823794,-0.013594737,0.458631657,-0.0334915034,0.0220006593,-0.110814773,24.9664917,4.62864685,-44.021698,2
0.722619417,0.0321848044,0.024971467,-0.00242750718,0.999167067,0.0501821144,0.0642389292,-0.00647176784,0.490897302,-0.629535482,-9.77410324,0.151496201,0.0926370749,0.527846063,-0.116013199,0.0162440706,-0.0768941343,25.0207977,4.68604279,-43.9882812,2
0.732577417,0.0314210989,0.0250137903,-0.00271834138,0.999189572,0.050277786,0.0626963433,-0.00701804463,0.491880614,-0.614438378,-9.77501451,0.167870851,0.158044855,0.485212205,-0.184675083,-0.00784075819,-0.0473239869,25.0586319,4.73491669,-44.1071167,2
0.742535417,0.0304158516,0.0249200347,-0.00290456124,0.99922251,0.0500910963,0.060676869,-0.00733409649,0.490116855,-0.594671747,-9.776325,0.105440077,0.156234774,0.306659473,-0.209404707,-0.0292209331,-0.0384528451,25.0586319,4.73491669,-44.1071167,2
0.752493417,0.0294205297,0.0248033389,-0.00306847656,0.999254623,0.0498566793,0.0586786514,-0.00760499563,0.487883324,-0.575110832,-9.77760686,0.0172924591,0.0769684177,-0.0408639253,-0.18467325,-0.0220253393,-0.0366123356,24.8642654,4.81171417,-44.1911621,2
0.762451417,0.0286071786,0.0246640793,-0.0032259456,0.999281246,0.0495781945,0.0570450379,-0.0078712781,0.485206323,-0.559117363,-9.77866777,-0.0475170265,0.0623216508,-0.266803848,-0.138291493,-0.0376353338,-0.0328898355,24.6551514,4.87155914,-43.8942566,2
0.772409417,0.0280414919,0.0244129178,-0.00335155388,0.999302994,0.0490761179,0.0559093741,-0.00808029836,0.480327465,-0.547998076,-9.77953812,0.0196110747,0.0684106884,-0.318755569,-0.0862701014,-0.0685266778,-0.0190496556,24.6480103,4.91072845,-43.8609924,2
0.782367417,0.0277790863,0.0239883319,-0.00340346774,0.999320408,0.0482257607,0.0553854406,-0.00814764088,0.472024953,-0.542867983,-9.78022844,0.17844898,0.0581929535,-0.399917017,-0.0144717004,-0.0970338061,0.000286826165,24.6580887,5.07170105,-44.1585388,2
0.792325417,0.0279145265,0.0235275419,-0.00336763929,0.999327696,0.0473023292,0.0556617921,-0.0080568356,0.462986272,-0.545573881,-9.78051018,0.187786936,0.0347122708,-0.610175386,0.067501463,-0.0835201219,0.018798193,24.5494461,5.13665009,-44.3332825,2
0.802283417,0.0283836404,0.0231704941,-0.0032675642,0.999323218,0.0465865603,0.0566076673,-0.0078587002,0.455961342,-0.554835155,-9.78031904,0.129719509,0.0402325686,-0.578493715,0.114829145,-0.0573131703,0.0272133239,24.7928925,5.15077209,-44.3200378,2
0.812240417,0.0289697672,0.0229595217,-0.00314988344,0.9993116,0.046163359,0.0577871657,-0.0076385186,0.451791728,-0.566383153,-9.77985084,0.0571249955,0.0456454605,-0.323680165,0.113334313,-0.0263912063,0.0266495347,24.5765915,5.04408264,-44.2623291,2
0.822198417,0.0294475035,0.0228733824,-0.00303691188,0.999300066,0.0459891262,0.0587486438,-0.00742958629,0.450062529,-0.575796037,-9.77938088,-0.00489135224,0.0625401889,0.044407297,0.0719305277,-0.00938281976,0.0238082837,24.7589798,5.0255127,-44.2994995,2
0.832156417,0.02965049,0.0228424162,-0.00294622948,0.999294966,0.0459237881,0.0591590742,-0.00725563871,0.449412651,-0.579814004,-9.77917338,-0.0428480483,0.0580288855,0.349759779,0.00898032356,-0.00080317969,0.0119811855,24.7021484,5.00818634,-44.2175293,2
0.842114417,0.029554903,0.0228793853,-0.00291865092,0.999297046,0.0459952601,0.0589688704,-0.00719816814,0.450116671,-0.577951973,-9.77925112,-0.11298388,0.0127718764,0.407447997,-0.0477791354,0.0151365995,-0.000747773331,24.6249008,5.0286026,-44.2508545,2
0.852072417,0.0292176227,0.0229698208,-0.00292884396,0.99930488,0.0461736621,0.0582930843,-0.00720816907,0.451879223,-0.571336172,-9.77955858,-0.129560555,-0.000727218296,0.376032284,-0.0860924348,0.0166125223,-0.00811167993,24.5247498,4.99593353,-44.3161316,2
0.862030417,0.0287613466,0.0229959452,-0.00296156768,0.999317437,0.0462233568,0.0573787019,-0.00725388242,0.452389146,-0.562384146,-9.78005367,-0.0154481098,-0.050679911,0.262504104,-0.0931201726,-0.010000661,-0.00811011437,24.7338257,5.03775024,-44.2563477,2
0.871988417,0.0283214945,0.022847281,-0.0029856743,0.999333334,0.0459226057,0.0564988517,-0.00727317534,0.449470299,-0.553769755,-9.78067969,0.03325988,-0.0703675581,0.126660048,-0.0791284591,-0.0517800674,-0.00314704701,24.701889,4.96183014,-44.0477295,2
0.881946417,0.0279909669,0.022489882,-0.00298171785,0.99935075,0.0452033093,0.0558404859,-0.00722992301,0.44245136,-0.547323574,-9.781363,0.0476110615,-0.0432949153,-0.024539398,-0.0514627807,-0.0879825652,0.00607855665,24.79953,5.11993408,-44.1843567,2
0.891904417,0.0278269255,0.0220123506,-0.00293188524,0.999366136,0.0442425417,0.0555180144,-0.00709611839,0.433061345,-0.544166097,-9.78195921,0.0779503779,0.000833089823,-0.181211723,-0.0115776826,-0.10053511,0.0176356118,24.7069473,4.972435,-44.1801758,2
0.901862417,0.0278936202,0.0214942919,-0.00283351153,0.999375748,0.0432001358,0.0556593404,-0.00687329053,0.422860999,-0.545549879,-9.78232863,0.0700445367,0.0245129118,-0.292023044,0.0399773903,-0.10412956,0.0275955629,24.5063248,5.04720306,-44.2022705,2
0.911820417,0.0282511759,0.0209673435,-0.00273076289,0.999377183,0.042142284,0.0563825159,-0.00665345029,0.412495782,-0.552630704,-9.78237364,-0.00383618063,-0.0174874336,-0.408845005,0.105926313,-0.102049097,0.0201570895,24.5314865,4.91858673,-44.2198181,2
0.921778417,0.0289434924,0.0205459978,-0.0027016532,0.999366286,0.0413029742,0.0577714151,-0.00660028723,0.40425311,-0.566228948,-9.78193992,-0.177253596,-0.0709267629,-0.533178656,0.169230148,-0.0639448985,0.000116688665,24.6328735,4.94374084,-44.1662598,2
0.931736417,0.0298377874,0.0202374389,-0.0027888321,0.999346025,0.0406982099,0.0595588765,-0.00679379564,0.398295444,-0.583727817,-9.78115549,-0.194639433,-0.0642018751,-0.38282852,0.182602942,-0.0661816895,-0.0244336613,24.6596375,4.85681915,-44.0986328,2
0.941694417,0.0306644166,0.0198083824,-0.00299245126,0.999329038,0.0398588797,0.0612073426,-0.00720927417,0.390046817,-0.599864274,-9.78051193,-0.0870314004,-0.0474668307,-0.0723760849,0.143445194,-0.107996486,-0.0422578193,24.3048477,4.74784088,-44.0391846,2
0.951652417,0.031210976,0.0192184001,-0.00322506233,0.999322929,0.0386967916,0.062296012,-0.00766034158,0.378655253,-0.610520108,-9.78030034,0.106768367,-1.46130472E-07,0.123587217,0.0769132972,-0.120639578,-0.0390748084,24.2433548,4.74175262,-44.4140015,2
0.961610417,0.0313930984,0.0186981002,-0.00339287253,0.999326511,0.0376668451,0.0626580219,-0.00797088361,0.368573529,-0.614063334,-9.78046342,0.175059155,0.130735043,0.196324536,-0.00343890861,-0.0874561518,-0.0210671239,24.1675949,4.73690796,-44.5369263,2
0.971568417,0.0311629189,0.0183667472,-0.00343669909,0.999339744,0.0370034174,0.0621985413,-0.00802919508,0.3620952,-0.609566095,-9.78098657,0.176300168,0.257170671,0.206274852,-0.0897913724,-0.0471076556,0.00797784422,24.1353836,4.67191315,-44.3881531,2
0.981526417,0.0305340325,0.0182479332,-0.00329662311,0.999361808,0.036750383,0.0609465025,-0.00771781029,0.359648026,-0.597311083,-9.78183295,0.232317604,0.282923646,0.184825237,-0.161997572,0.00232759328,0.0470825993,24.2856064,4.72795868,-44.3595276,2
0.991484417,0.0296240375,0.018371237,-0.00294029564,0.999388051,0.0369672254,0.0591382495,-0.00697770774,0.361808455,-0.579610116,-9.78281787,0.249460389,0.232601718,0.118324182,-0.20285207,0.0468423292,0.0881117955,24.3644333,4.64936066,-44.2623291,2
1.00144242,0.0285873045,0.0186311912,-0.002391427,0.999414813,0.0374470364,0.0570830365,-0.00585485596,0.366546151,-0.559489411,-9.78381331,0.229459694,0.198265368,0.0383650942,-0.215305895,0.0573319346,0.121604279,24.2901611,4.79068756,-44.3459778,2
1.01140042,0.0275749076,0.0188362415,-0.00168150248,0.999440876,0.0378104965,0.0550834846,-0.00440663771,0.370143701,-0.539911325,-9.78477778,0.215387512,0.190359015,-0.00855447786,-0.193047985,0.0281769782,0.152561128,24.3632355,4.84021759,-44.3511047,2
1.02135842,0.0267662841,0.0188526615,-0.00084893416,0.999463586,0.0377935957,0.0534973575,-0.0027100694,0.370010211,-0.524379665,-9.78562709,0.18903511,0.116169451,-0.0726473031,-0.133264393,-0.0159035306,0.174377397,24.4256058,4.92618561,-44.0700073,2
1.03131642,0.0263297546,0.0186398616,3.42452305E-05,0.999479591,0.0373188965,0.0526577131,-0.00091437869,0.365381272,-0.516157159,-9.7862385,0.0868228722,0.0391136476,-0.207159234,-0.0461278968,-0.0601178631,0.17806454,24.3330078,4.90559387,-44.1983032,2
1.04127442,0.0263495401,0.0182890852,0.000864928047,0.999485098,0.0365727252,0.0527280122,0.000766212379,0.358077635,-0.51684558,-9.7864723,-0.127486818,-0.0396554628,-0.36584056,0.0454480574,-0.0675275922,0.156085625,24.2359467,4.91352081,-44.0955505,2
1.05123242,0.0267546436,0.0179553192,0.00152649743,0.999479609,0.0358693892,0.0535618656,0.00209363377,0.351178779,-0.525011351,-9.7862876,-0.275163607,-0.17753603,-0.390266561,0.106032304,-0.0602465086,0.113055602,24.2215881,4.8531723,-43.9629822,2
1.06119042,0.0273510909,0.0176614551,0.00194422599,0.999467982,0.0352579256,0.0547691322,0.00292465267,0.345172159,-0.536833233,-9.78585973,-0.384677217,-0.283030066,-0.220556476,0.125648841,-0.0512956865,0.0620085523,24.2013321,4.72577667,-44.1482239,2
1.07114842,0.0279567238,0.0174501992,0.00212483208,0.999454524,0.0348241449,0.055986349,0.00327678529,0.340904199,-0.548751744,-9.78534827,-0.395373017,-0.329320546,-0.0459919358,0.112237431,-0.0316103995,0.0182645321,24.1606827,4.53778839,-44.2757568,2
1.08110642,0.0284102743,0.0173264434,0.00211184155,0.999443972,0.0345764441,0.056892823,0.00324208784,0.338463016,-0.557627051,-9.7849315,-0.294769603,-0.312664047,0.131660049,0.0668323264,-0.0201250538,-0.0160965994,24.2380219,4.64519501,-44.4352112,2
1.09106442,0.0285963897,0.0172240748,0.00199072393,0.999440686,0.0343781312,0.0572606531,0.00299904802,0.336515462,-0.561228364,-9.78479239,-0.154407229,-0.238284184,0.292979907,0.00911762938,-0.0237110015,-0.0282531306,24.1892853,4.73368835,-44.4278564,2
1.10102242,0.0285055734,0.0170762139,0.00183801978,0.999446095,0.0340908231,0.0570733206,0.00270487632,0.333707785,-0.55939428,-9.78499346,-0.0592731134,-0.188642969,0.317871187,-0.0428293459,-0.0352916457,-0.0310435127,24.1892853,4.73368835,-44.4278564,2
1.11098137,0.0281942594,0.0168891335,0.00167482594,0.999458419,0.0337256255,0.0564445197,0.00239930791,0.33014611,-0.553237767,-9.78546459,-0.0462842699,-0.0882574716,0.25788872,-0.079130359,-0.0386472307,-0.0343317203,24.3345795,4.61071777,-44.3000488,2
1.12093938,0.0277231198,0.0167152997,0.00149282082,0.999474755,0.0333878621,0.0554955036,0.00206044641,0.326858284,-0.543945659,-9.78609587,-0.09297544,-0.0550525001,0.151080204,-0.107088946,-0.0319937877,-0.0395044163,24.2151947,4.60405731,-44.4712524,2
1.13089738,0.0271490515,0.0165970752,0.00129037576,0.999492826,0.0331622687,0.0543401364,0.00168073459,0.324671222,-0.532632493,-9.78679087,-0.112336157,-0.0436207497,0.045382864,-0.121594921,-0.0168252196,-0.0415814146,24.1537094,4.70215607,-44.4405212,2
1.14085537,0.0265117968,0.0165668423,0.00110332248,0.999510627,0.0331116076,0.0530590948,0.00132900227,0.324197723,-0.52008785,-9.78748119,-0.0766978571,-0.0617019845,-0.0167746092,-0.130530432,-0.000627704547,-0.0342259854,24.2723007,4.71752167,-44.2057495,2
1.15081338,0.0259071396,0.0165124267,0.000991627999,0.999527451,0.0330082054,0.0518457663,0.00112825559,0.323206264,-0.508205543,-9.78813819,0.0444525974,-0.0397661932,-0.114728787,-0.106724173,-0.0243886933,-0.0132357478,24.2170258,4.68795776,-44.2607117,2
1.16077137,0.0255463443,0.0163754235,0.000977971347,0.999539033,0.0327343889,0.0511234325,0.00111983998,0.320538032,-0.501131257,-9.78859061,0.0812382039,-0.0127231053,-0.399186365,-0.0341764316,-0.0260065086,0.00560489483,24.2411346,4.67349243,-44.255249,2
1.17072938,0.0256009956,0.0162765199,0.0010498086,0.999539158,0.0325327067,0.0512349821,0.0012669222,0.318562019,-0.502223728,-9.78859938,0.08216679,-0.0117802715,-0.612261545,0.0538556911,-0.016520327,0.0239985492,24.2829514,4.70513916,-44.1321411,2
1.18068738,0.0260636533,0.0161431287,0.00119449278,0.999529228,0.0322582594,0.0521649874,0.00154847004,0.315860359,-0.511331785,-9.78821535,0.106865178,-0.0201798145,-0.596035802,0.127494335,-0.0368246734,0.0393048748,24.2616882,4.90409088,-44.3399963,2
1.19064537,0.0267751423,0.015906797,0.00137444129,0.999514003,0.0317754934,0.0535936376,0.00189846007,0.311111374,-0.525322499,-9.78762615,0.076299615,-0.014269531,-0.405387558,0.150657177,-0.0525098927,0.0368353277,24.1969833,4.83862305,-44.3841553,2
1.20060338,0.0274647233,0.0156830885,0.00151176401,0.999498664,0.0313198438,0.0549770171,0.00216381976,0.306628566,-0.53886883,-9.78703111,-0.0161827077,-0.0513007098,-0.112692898,0.118065529,-0.0330601931,0.0233741906,24.2540436,4.87582397,-44.4824524,2
1.21056137,0.0278777905,0.0156213514,0.00156330622,0.99948813,0.0311931559,0.0558048432,0.00225755072,0.305374639,-0.546974578,-9.78662077,-0.127755534,-0.0653413274,0.0800783298,0.0416399986,0.0125815915,0.000603896566,24.065155,4.77991486,-44.4627686,2
1.22051938,0.0278388189,0.0158136839,0.0015326399,0.999486177,0.031580046,0.0557263406,0.0021866323,0.309162322,-0.546205932,-9.78654479,-0.219829403,-0.057131754,0.279169993,-0.0585236177,0.0607238412,-0.0144006219,24.125473,4.68315887,-44.4754639,2
1.23047738,0.0273282444,0.0161709903,0.0014451898,0.999494626,0.032300571,0.0547028853,0.00200807442,0.316231566,-0.53618456,-9.78687329,-0.182755555,-0.0482987515,0.367036492,-0.143373787,0.0793494582,-0.0258572754,23.9751511,4.64884949,-44.5345459,2
1.24043537,0.0264984534,0.0165800441,0.0013133747,0.99951054,0.0331268878,0.0530393833,0.00174923341,0.324347616,-0.519894811,-9.78748645,-0.136104242,-0.0515700282,0.280710208,-0.18141602,0.0828538463,-0.0358445048,24.0167542,4.70951843,-44.3662109,2
1.25039338,0.0256267745,0.0169619997,0.00116680716,0.999527044,0.0338992169,0.0512913778,0.00146507521,0.331936976,-0.502776065,-9.7881265,-0.0753092157,-0.0716815268,0.0652735594,-0.163140342,0.0669198856,-0.0314857103,24.1141891,4.8859787,-44.1968384,2
1.26035138,0.0249679314,0.0172132951,0.00106032504,0.99953954,0.0344075192,0.0499701662,0.00126168809,0.33693482,-0.489836029,-9.78861165,0.0269831379,-0.050354588,-0.145828859,-0.0973044559,0.0321628749,-0.0166972559,24.191597,5.01587677,-44.1298523,2
1.27030938,0.0246757423,0.0172769621,0.00102824842,0.999545718,0.0345364443,0.0493846663,0.00120438754,0.338206667,-0.484101321,-9.78885306,0.0294522314,-0.00132193279,-0.280410933,-0.0201731864,-0.00732247904,0.000533396844,24.0047607,4.95107269,-44.1347351,2
1.28026738,0.0247561558,0.0171546155,0.00106079104,0.999545803,0.0342899163,0.0495464873,0.00127281611,0.335790728,-0.485686289,-9.78885774,0.0323170828,0.0764286117,-0.316917832,0.0496121347,-0.0388081037,0.010283038,24.1051407,5.02180481,-44.2933044,2
1.29022537,0.0251436987,0.0169518976,0.0011141231,0.999539511,0.0338815226,0.0503232509,0.00137649631,0.331780104,-0.493294243,-9.78861399,-0.00123136843,0.0817919654,-0.263740953,0.103519313,-0.0392366052,0.0154429125,24.1307907,5.01556396,-44.3227539,2
1.30018338,0.0257354226,0.0167914728,0.00116446999,0.999527053,0.0335579229,0.0515083819,0.00146551139,0.32859267,-0.50490135,-9.78813001,-0.0580485766,0.0491063781,-0.176238026,0.129032478,-0.022386197,0.0137831941,24.3046799,4.91144562,-44.284729,2
1.31014138,0.0263688027,0.0167056132,0.00122060391,0.999511988,0.0333832236,0.0527771484,0.00156117684,0.326861024,-0.517326788,-9.78753906,-0.11108433,-0.00760075733,-0.0141729023,0.123070978,-0.0142542338,0.0144902635,24.212883,4.97903442,-44.3299561,2
1.32009938,0.0269259793,0.0166264978,0.00128053408,0.999498311,0.0332216904,0.0538936087,0.00166683469,0.32526064,-0.528259941,-9.78700831,-0.0888339198,-0.0327302667,0.154087569,0.100779749,-0.0165136997,0.0152661949,24.0913391,5.00001526,-44.3258057,2
1.33005738,0.0273392687,0.0165319689,0.00134032103,0.99948858,0.0330291785,0.054722197,0.00177798963,0.32336193,-0.536373653,-9.78663013,-0.061646528,-0.0401788291,0.264141935,0.0643980429,-0.0229665395,0.011254143,24.1368942,5.04383087,-44.543335,2
1.34001438,0.0275341313,0.0164144856,0.00135699159,0.999485149,0.032793,0.0551123544,0.00181141995,0.321043643,-0.540194015,-9.78649627,-0.050499586,-0.0543150161,0.34451311,0.0113600111,-0.0212646089,-0.00317600719,24.098259,4.95956421,-44.587616,2
1.34997338,0.027425834,0.0163785996,0.00128637443,0.999488814,0.0327250186,0.0548933307,0.00167556482,0.32038222,-0.538049367,-9.78663597,-0.0671960884,-0.110029926,0.363507149,-0.0558192916,0.0104501778,-0.0250730496,24.1239243,4.99451447,-44.6546936,2
1.35993037,0.0269829965,0.016526709,0.00113833503,0.999498612,0.033029561,0.0540028052,0.00138566877,0.323378333,-0.529329251,-9.78701299,-0.0526846384,-0.152568177,0.316449045,-0.122412249,0.0477652438,-0.0368652232,24.1733551,5.03590393,-44.6716919,2
1.36988838,0.0262511925,0.0168467326,0.000973478824,0.999513011,0.0336787671,0.0525337771,0.00106298253,0.329757878,-0.514943436,-9.7875677,-0.0487391887,-0.121763399,0.229614811,-0.167686254,0.077159889,-0.0365131535,24.3057556,5.06018829,-44.6542358,2
1.37984637,0.0253673356,0.0172822063,0.000828462172,0.999528545,0.0345574668,0.0507611839,0.000780341339,0.338389111,-0.497583428,-9.78817092,-0.0560236466,-0.0782209019,0.0934498526,-0.180614337,0.0941300318,-0.0332868472,24.2485046,5.02351379,-44.4733276,2
1.38980438,0.0245045282,0.0177993301,0.000709828522,0.999541099,0.0355978263,0.0490314787,0.000547335,0.348602243,-0.480641902,-9.788659,-0.0762625344,-0.0577530277,-0.0908645123,-0.162328005,0.112699188,-0.0271724947,24.2840347,5.1392746,-44.3609924,2
1.39976238,0.0237643125,0.0183959068,0.000622986237,0.999548244,0.0367954619,0.0475479886,0.000371497318,0.36035106,-0.466110797,-9.78893606,-0.0405762309,-0.0272432136,-0.162862412,-0.134594679,0.119762659,-0.0193857942,24.2001648,5.26036835,-44.1749268,2
1.40972037,0.0231669608,0.018921498,0.000575790181,0.999552416,0.0378490573,0.0463515686,0.000274652722,0.370685297,-0.454390877,-9.78910148,0.0726902289,-0.0238497352,-0.169430684,-0.105283931,0.0901419148,-0.00838027988,24.2502823,5.20250702,-44.5235291,2
1.41967838,0.0227351704,0.0192869321,0.000598261928,0.999555307,0.0385789743,0.0454888841,0.000319338734,0.377845398,-0.44593975,-9.78921605,0.103837355,-0.0348447381,-0.177246911,-0.0679912716,0.0598278269,0.0107640456,24.3260574,5.22154236,-44.4907532,2
1.42963637,0.0225080883,0.0194894881,0.000701830685,0.99955649,0.0389794831,0.0450387934,0.000526230255,0.381773823,-0.441530373,-9.78926398,0.07821144,-0.0317721622,-0.191414552,-0.0230166055,0.0202870741,0.0240119398,24.2083969,5.32649231,-44.5933838,2
1.43959438,0.0224877418,0.0195078264,0.000812439525,0.999556496,0.0390111901,0.0450024231,0.00074754139,0.382084825,-0.44117407,-9.78926749,0.0190928595,-0.0261429972,-0.195151985,0.0152215939,-0.00852407794,0.0207069591,24.3273544,5.15357971,-44.502533,2
1.44955238,0.0226372304,0.0194244654,0.000889494984,0.999554706,0.0388409689,0.0453043525,0.000899688857,0.380413276,-0.44413197,-9.7891991,-0.0928105318,-0.0195937948,-0.169632344,0.0412223004,-0.0254471339,0.011272179,24.3273544,5.15357971,-44.502533,2
1.45951037,0.0228596272,0.0192464848,0.00090222234,0.999553048,0.0384842721,0.0457495067,0.000924670882,0.376913853,-0.448492905,-9.78913539,-0.133454202,-0.00924735549,-0.0906874021,0.0435465947,-0.0448076166,-0.00363600999,24.3136292,5.29741669,-44.406311,2
1.46946838,0.0230323736,0.0190195066,0.000842948458,0.999553464,0.0380327494,0.0460925617,0.000809875573,0.372487926,-0.451853577,-9.78915058,-0.158057934,-0.0135182012,-0.0180979667,0.02342375,-0.0435559303,-0.0180495698,24.4835358,5.23719788,-44.5091248,2
1.47942638,0.0230498736,0.0188543242,0.000726560538,0.999556307,0.0377074497,0.046123042,0.000583917776,0.369302976,-0.452152195,-9.78925755,-0.11596728,-0.0207014272,0.030641222,-0.0157017391,-0.0209272373,-0.0280242134,24.3083038,5.18077087,-44.4518127,2
1.48938438,0.0228775369,0.0188143726,0.000581891587,0.999561104,0.0376338968,0.0457728698,0.000302736476,0.368588873,-0.448721782,-9.78944226,-0.0672194693,-0.00617532763,-0.00179506672,-0.053013958,0.00342923449,-0.0294521991,24.2169037,5.26264954,-44.5427246,2
1.49934238,0.0225547873,0.0188682986,0.000460953763,0.999567505,0.0377468579,0.0451227704,7.0439578E-05,0.369705638,-0.442353087,-9.78968951,0.022493754,0.0591323533,-0.0437450337,-0.0739587992,0.016738791,-0.0208873972,24.1997452,5.09069061,-44.3580627,2
1.50930037,0.0221845726,0.0189774706,0.000421135112,0.999573765,0.037966574,0.0443807855,-1.03031887E-07,0.371868917,-0.435083973,-9.78993384,0.109065574,0.106630639,-0.143758483,-0.0698620602,0.0265120603,0.00331088249,24.1237106,5.17242432,-44.45401,2
1.51925838,0.0218852192,0.0191165847,0.000528862205,0.999577668,0.0382398351,0.0437861629,0.000220747985,0.374553955,-0.429258372,-9.79008816,0.141994359,0.152280337,-0.219620072,-0.0492629334,0.0292884894,0.0339841843,24.1829605,5.22581482,-44.3746948,2
1.52921638,0.0217449691,0.0192468374,0.000778259734,0.999578035,0.0384895147,0.0435152769,0.000719500071,0.377002773,-0.426604424,-9.79011037,0.0985448011,0.156060805,-0.311624986,-0.00739138294,0.0272514373,0.0601468161,24.2486572,5.22254944,-44.2122498,2
1.53917438,0.0218368933,0.0194030452,0.00111116108,0.999572751,0.0387877488,0.0437121661,0.00137528235,0.379919245,-0.428533419,-9.78991338,0.0170686237,0.104120227,-0.386940047,0.0413150564,0.0376722887,0.0714771524,24.4699249,5.31516266,-44.3144531,2
1.54913238,0.0221498413,0.0196105694,0.00145271367,0.999561327,0.0391881353,0.0443517658,0.00203741575,0.383828162,-0.434799676,-9.78948435,-0.00734068162,0.0150673669,-0.344871422,0.0795569867,0.0486554317,0.0641963333,24.3044586,5.28524017,-44.3473816,2
1.55909037,0.0225654894,0.0198564965,0.00171659319,0.99954666,0.0396684147,0.0451940734,0.00253808115,0.388515114,-0.443051591,-9.78892963,-0.102558348,-0.0977375033,-0.183967743,0.0808649734,0.0527062193,0.0413904339,24.4887772,5.20051575,-44.446167,2
1.56904838,0.022912605,0.0201284464,0.00185758083,0.999533214,0.0402061337,0.0458947098,0.00279398283,0.393766203,-0.449915376,-9.78840707,-0.185621027,-0.159707016,0.0528349336,0.0559005067,0.0558436885,0.0166233014,24.3711166,5.17406464,-44.2637329,2
1.57900638,0.023095239,0.0203930372,0.00189565213,0.99952355,0.0407339139,0.0462622868,0.00285058748,0.398925522,-0.45351625,-9.78803181,-0.223550945,-0.18453736,0.236962836,0.0182586275,0.0473053716,0.000385856489,24.4331055,5.2003479,-44.1868896,2
1.58896438,0.0231020186,0.0205726347,0.00187899352,0.999519737,0.0410942372,0.0462756732,0.00280865386,0.402452089,-0.453647366,-9.78788159,-0.152857296,-0.1703402,0.319861484,-0.0140987802,0.0213049278,-0.00764144305,24.466774,5.24998474,-44.2812805,2
1.59892238,0.0229827078,0.0205742333,0.00183280271,0.999522542,0.0410996741,0.0460351443,0.00272103816,0.402509774,-0.451291121,-9.78798797,-0.0707639005,-0.149802001,0.30665012,-0.0286598783,-0.0212806147,-0.0114364484,24.539917,5.07305908,-44.1053162,2
1.60888037,0.0228408332,0.0204144292,0.00176190756,0.999529208,0.0407831121,0.0457480525,0.00259230611,0.399416521,-0.448478658,-9.78824399,0.00116265057,-0.16368761,0.211586987,-0.0282193571,-0.0418905355,-0.0179355107,24.4275055,5.09819031,-43.9784851,2
1.61883838,0.0226994703,0.0201921942,0.00162693004,0.999537174,0.0403444486,0.045459287,0.00233806747,0.395127957,-0.445649791,-9.78854736,-0.0238777923,-0.143921199,0.113877724,-0.0290127862,-0.0425755568,-0.0350830369,24.3829346,5.09869385,-44.294281,2
1.62879638,0.022536236,0.020071168,0.00141771036,0.999543648,0.0401116923,0.0451241252,0.00193143685,0.392855555,-0.442366349,-9.7887876,-0.0973219813,-0.130744505,0.0334632937,-0.0373016112,-0.00234691147,-0.0503549352,24.3016739,5.08501434,-44.009491,2
1.63875437,0.0222796423,0.0201931646,0.0011658672,0.99954717,0.0403671857,0.0446009776,0.00143231042,0.395365784,-0.437241188,-9.78891677,-0.131705057,-0.0912776962,-0.0202770644,-0.0640655011,0.0468707569,-0.0552631766,24.6945038,5.21092224,-43.8787842,2
1.64871238,0.0218779602,0.0204802096,0.000935991255,0.999550404,0.0409517377,0.0437885788,0.000975946118,0.401102282,-0.429282045,-9.78903543,-0.0425712407,-0.0727509461,0.0178495449,-0.0929948911,0.0604837686,-0.0418485664,24.6025391,5.31298065,-44.1570435,2
1.65867037,0.0213551346,0.0207782485,0.000779446183,0.999555758,0.0415546353,0.0427366945,0.000671368314,0.407022502,-0.41897623,-9.78923768,0.0791493419,-0.0182636787,0.054114452,-0.113158941,0.0568299927,-0.0284997765,24.6086807,5.32037354,-44.1956177,2
1.66862838,0.020799519,0.0210130555,0.000694541189,0.999562656,0.0420275984,0.0416220505,0.000514797851,0.411671789,-0.408055023,-9.7895048,0.0924566038,0.02229045,-0.0137035312,-0.104889289,0.0380994491,-0.0137756914,24.5728302,5.36695862,-44.1095276,2
1.67858638,0.0203750885,0.0212251607,0.00065967186,0.999566924,0.0424530765,0.0407718275,0.000454220788,0.415851523,-0.399724271,-9.78967198,0.0318634573,0.0506209474,-0.222280815,-0.0633941963,0.0511455946,-0.00692916196,24.5932922,5.34738159,-43.9820862,2
1.68854437,0.0201789071,0.0215306189,0.000626457165,0.99956441,0.0430656003,0.0403781819,0.000383752661,0.421854599,-0.395867121,-9.78957144,0.00311546514,0.0514024897,-0.356456646,-0.0172634535,0.0692987666,-0.0116584031,24.6269836,5.47761536,-44.1828613,2
1.69850238,0.0201534382,0.0218675829,0.000563299407,0.999557658,0.0437426115,0.0403246105,0.000244885589,0.428483077,-0.395342184,-9.7893049,-0.0151847462,0.0240924579,-0.27980946,0.00493072113,0.0633534193,-0.0159934536,24.756958,5.47737885,-43.9727173,2
1.70846037,0.0201763571,0.0221320928,0.000506703529,0.999551372,0.0442744013,0.0403680026,0.000119960129,0.433688135,-0.39576735,-9.78905881,0.058169938,0.015090492,-0.0880704976,0.00212188507,0.0397365056,-0.00847748015,24.8200912,5.47671509,-44.0619812,2
1.71841838,0.0201627307,0.0222069866,0.000484023827,0.999550023,0.0444252106,0.0403397532,7.21637826E-05,0.435164893,-0.395490543,-9.78900445,0.12911778,0.0202006746,0.0770750564,-0.00851055421,-0.0138526727,-0.00052113994,24.7715378,5.5927887,-44.2112732,2
1.72837638,0.0201265844,0.0220228881,0.000510767958,0.999554831,0.0440555611,0.0402686287,0.000134699326,0.431547616,-0.394793647,-9.78919267,0.161615151,0.0631978857,0.0534708934,-0.00279567717,-0.051715631,0.012980287,24.7301254,5.68947601,-44.1782532,2
1.73833437,0.0201938096,0.0217752928,0.000616246204,0.999558729,0.043555792,0.0404076305,0.000352784287,0.426652829,-0.396155656,-9.78935224,0.180725474,0.0853595582,-0.180552382,0.0304298028,-0.0455364324,0.0323919915,24.5208511,5.70212555,-44.1101379,2
1.74829238,0.0204395388,0.0215623129,0.00081253369,0.999558231,0.0431217861,0.040907467,0.00074352411,0.422395537,-0.401053328,-9.78933705,0.243940018,0.0640706134,-0.322573666,0.0636311695,-0.0373346955,0.0484918654,24.5761108,5.51485443,-44.1914978,2
1.75825037,0.0208104081,0.0214300654,0.00106253117,0.999553252,0.0428470333,0.0416598117,0.00123324648,0.419692854,-0.408425026,-9.78914883,0.231828578,0.030740883,-0.3315905,0.0786241964,-0.0126029979,0.055595737,24.6011429,5.46087646,-44.1365356,2
1.76820838,0.021170057,0.0214748507,0.00134889882,0.999544431,0.0429247539,0.0423914554,0.00178892907,0.420440714,-0.415593675,-9.78881507,0.153718005,-0.0116204778,-0.203086285,0.0614638515,0.0318691283,0.0637396798,24.6690979,5.39237213,-44.1782837,2
1.77816638,0.0213842077,0.0217073226,0.00169569926,0.999534225,0.0433752764,0.0428352113,0.00246369351,0.424842711,-0.419941459,-9.78843922,0.0852711492,-0.00757200616,-0.0191086051,0.0200327858,0.0616238005,0.0749774203,24.6751938,5.37744904,-43.993042,2
1.78812437,0.0213868539,0.0220146228,0.00210665423,0.999526691,0.0439728346,0.0428593373,0.00327267842,0.430691364,-0.420177861,-9.78817326,0.0433598338,0.0127157988,0.16782208,-0.0239157639,0.0623710863,0.0846090093,24.7046661,5.39567566,-44.1035461,2
1.79808238,0.0211963399,0.0222774242,0.00254273725,0.99952386,0.0444806565,0.042498578,0.00414240552,0.435668678,-0.416643221,-9.78810429,0.0195282187,-0.017454262,0.263371535,-0.0540642701,0.0446643271,0.0849983245,24.7993774,5.34934998,-44.1774597,2
1.80804038,0.0208737183,0.0224157966,0.00295175677,0.99952647,0.0447412647,0.0418722344,0.0049692921,0.438231112,-0.410506362,-9.78824925,-0.0663823609,-0.0644422232,0.264414322,-0.0773301721,0.0166417491,0.0736300871,24.7993774,5.34934998,-44.1774597,2
1.81799838,0.0204533115,0.0224223388,0.00328087417,0.999534038,0.0447421714,0.0410462165,0.00564625435,0.438255004,-0.402412853,-9.78858418,-0.141075381,-0.0774737368,0.249037305,-0.0947466791,-0.0117230071,0.0523014814,24.726265,5.27402496,-44.1087646,2
1.82795638,0.0199583058,0.0223120675,0.00349019305,0.999545775,0.0445149602,0.0400649453,0.00609151935,0.436048252,-0.392797797,-9.78907343,-0.210395476,-0.123600405,0.179795426,-0.10276226,-0.0265951641,0.0280922819,24.7245178,5.34527588,-44.0792236,2
1.83791437,0.0194687906,0.0222163729,0.00357472089,0.999557223,0.044322237,0.0390891289,0.00628606753,0.434178439,-0.383235786,-9.7895352,-0.276012223,-0.166232253,-0.00244973124,-0.09061566,-0.00495917862,0.00260134065,24.6172943,5.4105835,-44.1983948,2
1.84787238,0.0190714048,0.0222641751,0.00355629526,0.99956395,0.0444204482,0.0382938919,0.00626490477,0.435153276,-0.375443013,-9.78979414,-0.235986356,-0.185247883,-0.148536949,-0.0704994723,0.0225001425,-0.0124188876,24.7662277,5.3822937,-44.0621033,2
1.85783038,0.0187703553,0.0223675884,0.00350054404,0.999567548,0.0446309192,0.0376899962,0.00616278098,0.437223798,-0.369525094,-9.78992683,-0.0899155775,-0.147471658,-0.126856448,-0.0513982922,0.0153031247,-0.0101924464,24.7707138,5.50390625,-44.2515259,2
1.86778838,0.018601912,0.0223464648,0.00348402323,0.999571257,0.0445900153,0.0373522693,0.00613800489,0.436828881,-0.366215458,-9.79006887,0.0581716185,-0.0569585163,-0.0535416206,-0.0158189945,-0.0241348296,0.00500221923,24.647438,5.50817871,-44.3329468,2
1.87774638,0.0186431222,0.0221611544,0.00356116931,0.99957422,0.044216032,0.0374369522,0.00629745395,0.433166157,-0.367045333,-9.79020038,0.0577940904,0.0789941513,-0.120297528,0.0304056443,-0.0474072583,0.027110111,24.6930161,5.46889496,-44.108551,2
1.88770437,0.0189276276,0.0218873342,0.00371618729,0.999574359,0.0436607565,0.0380109699,0.00660547978,0.427720568,-0.372670516,-9.79022786,-0.00215195387,0.149861366,-0.19643618,0.0803947747,-0.0623068437,0.0371435694,24.649353,5.46044922,-44.0905151,2
1.89766238,0.0194284253,0.0215601008,0.00388370978,0.999571245,0.042996766,0.039017556,0.00693166269,0.421203515,-0.382534432,-9.79012966,-0.0376830302,0.142367284,-0.246962252,0.115356453,-0.0651040003,0.0357881747,24.5767593,5.43644714,-44.2745972,2
1.90762038,0.0200117339,0.0212620965,0.00403599536,0.999565481,0.0423910943,0.0401885216,0.00722339574,0.415254543,-0.39400867,-9.78992858,-0.0446029292,0.11463647,-0.182370245,0.112890631,-0.0518262759,0.0352563411,24.5589676,5.28414154,-44.0327148,2
1.91757837,0.0204980696,0.0210531145,0.0041906597,0.999559399,0.0419637326,0.0411661552,0.00752097282,0.411054315,-0.403588071,-9.78971582,-0.020201588,0.0799231027,-0.0489566309,0.0784943104,-0.0306170993,0.0323742628,24.4999084,5.28697205,-44.183197,2
1.92753638,0.0207596712,0.020969468,0.00433873457,0.999555147,0.0417886076,0.0416949141,0.00780983733,0.409330925,-0.40876898,-9.78957319,-0.0129416069,0.0445521854,0.0839285755,0.0241043027,-0.00136786618,0.0298815444,24.5271606,5.32121277,-44.1125183,2
1.93749437,0.020757289,0.0210375522,0.00447984925,0.999553147,0.0419190241,0.0416965986,0.00808944904,0.410607631,-0.408785457,-9.78951883,-0.0410034434,-0.00960007792,0.176649529,-0.0261807032,0.0270843059,0.026335014,24.4551773,5.29314423,-44.1630859,2
1.94745238,0.0205147722,0.021203595,0.00460368484,0.999554071,0.0422478315,0.0412181477,0.00834047058,0.413834666,-0.404097518,-9.78957787,-0.0307631679,-0.00635726007,0.248833891,-0.0696661323,0.0379241742,0.0185511261,24.5059662,5.23394775,-44.2919006,2
1.95740937,0.0201158346,0.0213861237,0.00469893805,0.999557902,0.0426119903,0.0404258772,0.00854040324,0.417413109,-0.396334446,-9.78974329,-0.0232683551,-0.00978080478,0.226852945,-0.0888468698,0.0365335792,0.014418358,24.4993057,5.17729187,-44.0941772,2
1.96736738,0.0196789717,0.0215381547,0.00477637632,0.999562992,0.0429162306,0.0395568076,0.00870780233,0.420406154,-0.38781862,-9.78995605,-0.040028059,-0.0109644251,0.144615392,-0.0864311159,0.0250660069,0.0107101724,24.6154633,5.27478027,-44.103241,2
1.97732638,0.0192856277,0.0216222432,0.00482750471,0.999568576,0.0430853278,0.038773092,0.00882359302,0.422074562,-0.380138879,-9.79018577,-0.0672845339,-0.0117607996,0.0662853668,-0.0720423162,0.00817573071,0.00567732938,24.7649078,5.44112396,-44.0102234,2
1.98728338,0.0189468935,0.0215874067,0.0048413888,0.999575726,0.0430175053,0.0380959498,0.00886719068,0.421421541,-0.373503277,-9.79046927,-0.0609452844,-0.0151043744,0.0245206933,-0.0660885572,-0.0212404802,-0.00213798322,24.6638412,5.52761078,-43.9714661,2
1.99724138,0.0186440117,0.0214405222,0.00481819303,0.999584719,0.0427265847,0.0374879275,0.00883923494,0.418582884,-0.36754488,-9.79081647,-0.0292265329,-0.0363258435,-0.0385784447,-0.0547300205,-0.0312293321,-0.00644971617,24.6778793,5.4954834,-43.6165161,2
2.00719937,0.0184092946,0.0213326674,0.00479702353,0.999591459,0.042513204,0.037016667,0.00881083847,0.416501036,-0.362926609,-9.79107717,-0.0431559452,-0.0458821188,-0.159523622,-0.0414046273,-0.0109573491,-0.00147120305,24.624382,5.51672363,-43.8357239,2
2.01715738,0.0182357675,0.0213066914,0.00479890588,0.999595143,0.0424624029,0.0366694843,0.00882288385,0.416008942,-0.359524217,-9.79122388,-0.030692806,-0.00529109215,-0.199330732,-0.0282828901,-0.000171441818,0.00117567414,24.6722488,5.48632812,-43.950592,2
2.02711537,0.0181366471,0.0213193214,0.0048112856,0.999596618,0.0424879512,0.0364718941,0.0088513695,0.416262113,-0.357587805,-9.79128409,-0.0348365548,0.0433500065,-0.185503867,-0.011974223,0.00637753773,0.00131176179,24.6070786,5.51566315,-44.0924072,2
2.03707338,0.0180985512,0.0213522782,0.00481565091,0.999596649,0.0425540345,0.0363961875,0.00886051032,0.416910311,-0.356845864,-9.7912835,-0.0639158977,0.0547287115,-0.129539988,-0.00332697947,0.00387730869,-0.000873476267,24.8242188,5.66357422,-43.9395752,2
2.04703138,0.0181103097,0.0213339119,0.00480334149,0.999596853,0.0425176364,0.0364190154,0.00883605667,0.41655357,-0.35706959,-9.79129052,-0.0626613311,0.0423828785,-0.111726099,0.0088268891,-0.00875939056,-0.00284341653,24.493187,5.5927887,-44.0559387,2
2.05698937,0.0181850761,0.021298104,0.00479095476,0.999596284,0.0424458754,0.0365676947,0.00880942905,0.415848673,-0.358526657,-9.79126714,-0.0142220752,0.0234892679,-0.140180624,0.0200993251,-0.00513531454,-0.00017975783,24.679657,5.51674652,-44.1566162,2
2.06694738,0.0183007083,0.0212736031,0.00480185464,0.999594615,0.0423955964,0.0367991894,0.0088272628,0.415352852,-0.360795333,-9.79120459,0.0416396955,0.028750659,-0.122885206,0.0241217632,-0.00650098361,0.00427757483,24.7499695,5.61003113,-44.2469482,2
2.07690538,0.0184097563,0.0212399795,0.00480960112,0.999593325,0.0423272222,0.037017304,0.00883941524,0.414680031,-0.362932856,-9.79115432,0.059371167,0.0455526676,-0.0696644879,0.0185166858,-0.00367980753,0.000947784632,24.8732605,5.58605957,-44.3710632,2
2.08686338,0.0184598662,0.0212486537,0.00480665027,0.999592224,0.0423443279,0.0371174694,0.00883108318,0.414845999,-0.363914451,-9.79111107,0.0416976362,0.0600016469,0.0272574248,-0.000196282286,0.00925889425,-0.000267682131,24.7158051,5.68901825,-44.3246155,2
2.09682138,0.0183738544,0.0213061418,0.00481370317,0.999592553,0.042459753,0.0369462639,0.00884668439,0.415978766,-0.362236654,-9.7911251,0.0182688663,0.072240147,0.147729724,-0.0362714268,0.0132640619,0.00112739578,24.7799301,5.58424377,-44.389679,2
2.10677937,0.0180929181,0.0213479516,0.00484495066,0.999596646,0.0425443479,0.0363861283,0.00891952141,0.416815618,-0.356747299,-9.7912911,0.0267095816,0.051787032,0.236181915,-0.0744283944,0.00388094643,0.00710832234,24.6999741,5.4490509,-44.3380127,2
2.116737,0.0176765756,0.0213357794,0.00491449225,0.999604075,0.0425206005,0.0355563546,0.00907666747,0.416595509,-0.348615248,-9.7915933,0.0818466547,-0.001535539,0.158971834,-0.0877937376,-0.00614208914,0.0168887805,24.7139359,5.39446259,-44.1873474,2
2.126695,0.0172646244,0.0212624937,0.00503816873,0.999612266,0.0423727681,0.0347370943,0.00934402547,0.41515996,-0.340586036,-9.791937,0.0735557231,-0.0125575395,0.0259884277,-0.0758894086,-0.025095541,0.0285560898,24.6468353,5.53072357,-44.2907104,2
2.136653,0.0169892935,0.0210859953,0.00518818454,0.999619958,0.0420165876,0.0341911311,0.00966175043,0.411680009,-0.33523514,-9.79226842,0.0836197653,0.0218951671,-0.164767368,-0.0303231385,-0.0368282534,0.0295878742,24.6320038,5.54401398,-44.1760864,2
2.146611,0.0169965565,0.0209725815,0.00534003275,0.999621324,0.0417843552,0.034210902,0.00996909619,0.409405634,-0.335428909,-9.79235727,0.0413021341,0.00652662529,-0.413376218,0.0321061537,-0.00669884961,0.0321599543,24.5801392,5.49811554,-44.1594849,2
2.156569,0.0172766602,0.0209789467,0.00548969612,0.999615674,0.0417895044,0.0347773867,0.0102566619,0.409448049,-0.340980917,-9.79216379,-0.00183591019,0.00325001477,-0.430478744,0.0730552226,0.00729232654,0.0310910791,24.5801392,5.49811554,-44.1594849,2
2.166527,0.0176610737,0.0210447873,0.0056367198,0.999606701,0.0419126685,0.0355529918,0.0105325092,0.410642885,-0.348582296,-9.79184581,-0.0317611659,0.00935501712,-0.240158417,0.0758579299,0.0172586739,0.0308234319,24.583519,5.50200653,-43.9574585,2
2.176485,0.0179841237,0.0211247191,0.00578179267,0.99959846,0.0420644756,0.0362059919,0.0108064153,0.412119679,-0.354981934,-9.79155414,-0.0297962956,0.00932023806,0.0317407077,0.0508209802,0.0130228978,0.0309673902,24.649025,5.4600296,-44.0312195,2
2.186443,0.0181394541,0.0211564634,0.00591027371,0.999594241,0.0421218757,0.0365223876,0.0110558156,0.412676984,-0.35808264,-9.79141736,-0.0207768306,-0.0354630161,0.211468914,0.00787005201,3.62596475E-05,0.021700656,24.6156998,5.38188934,-44.229248,2
2.196401,0.0180586866,0.0211181038,0.00598721818,0.999596029,0.0420430735,0.0363636738,0.0112145173,0.411907753,-0.356527227,-9.79150679,-0.0265916543,-0.0690409126,0.301190686,-0.0408638157,-0.0155172925,0.00893034413,24.5870132,5.33633423,-44.2542725,2
2.206359,0.0177510312,0.0210378074,0.00600299398,0.999603121,0.041884795,0.0357481654,0.0112617705,0.4103671,-0.350495071,-9.79178912,-0.0202625244,-0.10559914,0.274238966,-0.080881007,-0.0154288756,-0.00351647241,24.7217178,5.37151337,-43.9580688,2
2.216317,0.0172853203,0.0209856378,0.00598886989,0.999612423,0.0417854429,0.0348156354,0.0112546684,0.409407717,-0.341355779,-9.7921521,0.00359133902,-0.108752964,0.152647307,-0.104017101,-0.00236913562,-0.00436834246,24.7822495,5.33117676,-43.9819946,2
2.226275,0.0167460204,0.0209955554,0.00599029947,0.99962143,0.0418105527,0.0337373007,0.0112795371,0.409668742,-0.330787148,-9.79250399,0.0287687426,-0.0774230661,0.0513952562,-0.111856915,0.00578120258,0.000746524893,24.7320023,5.31564331,-43.9706116,2
2.236233,0.0162033217,0.0210185444,0.00601492993,0.999629651,0.0418611301,0.0326532943,0.0113505584,0.410178811,-0.320162513,-9.79283599,0.0288572246,-0.0404629068,-0.021295886,-0.104751222,0.00833023433,0.00519168191,24.6664963,5.30793762,-44.0489502,2
2.246191,0.0157246528,0.0210784188,0.00605530866,0.999635855,0.0419844693,0.0316984343,0.0114493073,0.411399292,-0.310803404,-9.79308617,0.034220834,-0.0255807237,-0.0933206733,-0.0879514739,0.0158014651,0.00730516668,24.6511612,5.46803284,-43.9896851,2
2.256149,0.015358126,0.0211147019,0.00608937338,0.999640587,0.0420597425,0.030967312,0.0115315893,0.412145873,-0.303637056,-9.79327965,0.0273390752,-0.0194293615,-0.142657243,-0.0554960966,-0.00218691886,0.00289645768,24.4944305,5.56008911,-44.0431824,2
2.266107,0.0152211855,0.0211186754,0.00609876557,0.999642536,0.0420688086,0.0306939039,0.0115559686,0.412238154,-0.300957114,-9.79335856,-0.0194401021,0.00108454383,-0.316756504,0.00133043143,0.0103877289,-0.00210788799,24.6091614,5.52309418,-44.4598999,2
2.276065,0.0153800276,0.0212296952,0.00608823855,0.99963781,0.0422896705,0.031012388,0.011524837,0.414397049,-0.304078881,-9.79317093,-0.0455410137,-0.022578802,-0.473614706,0.0607364662,0.0304463878,-0.000290662283,24.5422516,5.51335907,-44.1620178,2
2.286023,0.015794975,0.0213410777,0.00608597943,0.999628995,0.0425084086,0.031843374,0.0114993624,0.416528289,-0.312224048,-9.7928243,0.0201135444,-0.0395727895,-0.40452948,0.104634419,0.0115422057,0.00308649242,24.7234879,5.51392365,-44.0897522,2
2.295981,0.016374282,0.0213401186,0.00612052687,0.999619468,0.0424994868,0.0330033186,0.0115440801,0.416425231,-0.323593254,-9.79245956,0.130200242,-0.0030644656,-0.252712778,0.123296089,-0.01311005,0.0159099549,24.5737228,5.45101166,-44.1920471,2
2.305939,0.0169662515,0.0212284303,0.00622127217,0.999611323,0.0422665331,0.0341901107,0.011724495,0.414127512,-0.33522513,-9.79216555,0.150155161,0.0495681138,-0.0487514637,0.108921945,-0.0305409711,0.0297131184,24.7400513,5.6787262,-44.39505,2
2.315897,0.0174019335,0.0210663257,0.00638971574,0.999606313,0.0419317351,0.035066567,0.0120489094,0.410836617,-0.343815081,-9.79200656,0.13384353,0.115169992,0.116439099,0.0601711124,-0.0318744965,0.0426625125,24.6141968,5.55669403,-44.3726501,2
2.325855,0.0175557448,0.0209426009,0.00661014738,0.999604699,0.0416746902,0.0353818593,0.012487883,0.408315099,-0.34690512,-9.79200305,0.100152784,0.116614017,0.211754745,-0.00117320567,-0.0143927075,0.046909187,24.5175858,5.37350464,-44.3951721,2
2.335813,0.017400064,0.0209470228,0.00684169002,0.999605787,0.0416771375,0.03508023,0.0129573611,0.408343412,-0.343948973,-9.79210593,0.058974167,0.0614343466,0.189112705,-0.0597649515,0.021786524,0.0440806821,24.5682831,5.34583282,-44.161377,2
2.345771,0.0170002889,0.0211575458,0.00706006848,0.999606732,0.0420955776,0.0342926748,0.0134034967,0.412452053,-0.336230362,-9.79220179,0.0343651379,-0.0246943693,0.104214408,-0.0994335413,0.0629257038,0.0389429145,24.619812,5.23997498,-44.4015503,2
2.355729,0.0164669007,0.0215201941,0.00725065531,0.999606535,0.0428213931,0.0332390344,0.0137949202,0.419574196,-0.325903541,-9.79224855,0.0297868336,-0.109540681,0.0421615639,-0.114227325,0.0811252818,0.0318290405,24.5780334,5.23516083,-44.2331238,2
2.365687,0.0159199053,0.021910396,0.00742976786,0.999605626,0.0436033006,0.0321583747,0.0141638492,0.42724579,-0.315311566,-9.79226375,0.0150821991,-0.117888092,0.024220249,-0.102758422,0.0754114687,0.0325763226,24.601532,5.34373474,-44.370575,2
2.375645,0.0154580697,0.0221954369,0.00762160704,0.999605049,0.0441736323,0.0312473436,0.0145586175,0.432843099,-0.306381898,-9.79230116,0.0283393382,-0.0906054777,0.0642108986,-0.0820360184,0.0401164331,0.0372245647,24.7531357,5.44992828,-44.2507935,2
2.385603,0.0151251547,0.0222746724,0.00784283077,0.99960681,0.0443298339,0.0305925799,0.015013267,0.434381451,-0.29996392,-9.79243151,0.0880026931,-0.0597636552,0.11566753,-0.0543010607,-0.00646864623,0.0484439321,24.738739,5.55704498,-44.2725525,2
2.395561,0.0149266938,0.0221379179,0.00809535623,0.999610723,0.0440512587,0.0302047877,0.0155312263,0.431658602,-0.296162738,-9.79266765,0.0593017185,-0.0426155913,0.0991436803,-0.0299189873,-0.0445742048,0.0512012169,24.8331604,5.66087341,-44.0999146,2
2.405519,0.0148149884,0.0218531558,0.00833145644,0.999616761,0.0434759354,0.0299872526,0.016016904,0.426027355,-0.29403042,-9.79297862,-0.00883840936,-0.0366675148,0.0743155285,-0.0184463561,-0.0621611886,0.0424689762,24.6743088,5.59050751,-44.0500793,2
2.415477,0.0147311357,0.021587791,0.00851441971,0.999622241,0.042940702,0.0298231775,0.0163944056,0.420787846,-0.292422108,-9.79325334,-0.08694701,-0.0596739676,0.0117424602,-0.0190064926,-0.0419862121,0.0314717591,24.7699738,5.65608215,-44.3202209,2
2.425435,0.0146246716,0.0214190894,0.00866061334,0.999626194,0.042600405,0.0296137428,0.0166963536,0.417457789,-0.290369158,-9.79345676,-0.0617699352,-0.119337396,-0.00810498052,-0.0266260635,-0.0226026606,0.0281790234,24.5415649,5.5650177,-44.197998,2
2.435393,0.0144620171,0.0213902261,0.00880435019,0.999627881,0.0425409519,0.0292941147,0.0169915636,0.416879477,-0.287236048,-9.79357425,-0.0399430841,-0.111995892,0.00652677142,-0.0388055705,0.00977385323,0.0283825286,24.7616348,5.68735504,-44.139679,2
2.445351,0.0142321183,0.0214726263,0.00894060102,0.999628222,0.0427055342,0.0288416091,0.0172713936,0.418496813,-0.282800348,-9.79363387,-0.0993204982,-0.0739345116,0.0140682728,-0.052319251,0.0247261729,0.0240903106,24.7080612,5.65554047,-44.0756226,2
2.455309,0.0139548392,0.021596858,0.00905548546,0.999628455,0.0429553283,0.0282942239,0.017509383,0.420949796,-0.277434529,-9.79368238,-0.0860614959,-0.0559568468,0.0588584317,-0.0598274991,0.0240734313,0.0188673194,24.7579727,5.64446259,-44.260437,2
2.465267,0.0136607308,0.0216745659,0.00914586716,0.999629921,0.0431131131,0.0277113624,0.0177005039,0.422501957,-0.271720846,-9.79377591,-0.0154883688,-0.0865103905,0.0779559309,-0.0583395921,0.00876318384,0.0127234068,24.6267014,5.61785889,-44.1813354,2
2.475225,0.0134105189,0.0216785656,0.00918849598,0.99963281,0.0431240925,0.0272129349,0.0177963306,0.422615281,-0.266834791,-9.79390508,-0.059595185,-0.120126847,0.00461363128,-0.0396602564,-0.0032192436,0.00165534741,24.7957458,5.62626648,-44.275238,2
2.485183,0.0132822065,0.0216859265,0.00916264582,0.999634681,0.0431416568,0.0269553736,0.0177499029,0.422790272,-0.264309912,-9.79396587,-0.137880969,-0.100804654,-0.165014621,-0.0108307395,0.00510233594,-0.0125843091,24.8383865,5.74354553,-44.468811,2
2.495141,0.0132971915,0.0217060481,0.00907683755,0.999634842,0.0431839856,0.0269819902,0.0175770898,0.423204516,-0.264570828,-9.79394133,-0.133656447,-0.0558020763,-0.263800574,0.0157489441,0.00243920321,-0.0225301478,24.8383408,5.7671814,-44.4903259,2
2.505099,0.0134297909,0.0217431597,0.00895180076,0.999633385,0.0432594728,0.0272423851,0.017320318,0.423940831,-0.26712349,-9.7938402,-0.0603221476,-0.0707570323,-0.272580677,0.0353013389,0.0113187153,-0.0268950686,24.7964554,5.88278961,-44.3573608,2
2.515057,0.0135909721,0.0218327303,0.00880845497,0.999630549,0.0434400495,0.0275600158,0.0170242323,0.425705685,-0.270237219,-9.79367829,-0.0571489609,-0.046694038,-0.205405668,0.0284244437,0.0218678974,-0.0288556516,24.7964554,5.88278961,-44.3573608,2
2.525015,0.0136671285,0.0219532404,0.0086752538,0.999628034,0.0436836724,0.027708535,0.0167511914,0.428089877,-0.271693136,-9.79353391,-0.0662668082,0.027336116,-0.0464852723,0.000522504793,0.0260035191,-0.023909362,24.6901627,5.77677917,-44.4456787,2
2.534973,0.0136042393,0.0220545923,0.00858714875,0.999627414,0.0438898833,0.0275806098,0.0165748891,0.430110898,-0.270439099,-9.79348014,-0.0464407756,0.0634914618,0.0607511136,-0.0218902398,0.00886995345,-0.0108620785,24.8692856,5.64713287,-44.2657471,2
2.544931,0.0135151201,0.0220051396,0.00856720755,0.999629915,0.043792848,0.0274007104,0.0165402324,0.42916273,-0.26867556,-9.79357015,0.0167566717,0.0808815543,0.00547521654,-0.0114690252,-0.0261474196,0.00290007237,24.9889984,5.77935028,-44.3847961,2
2.554889,0.0135397333,0.0218094002,0.00859811541,0.999633579,0.0433999508,0.02744803,0.016606361,0.425314274,-0.269139433,-9.79372505,0.0485872861,0.0774548677,-0.179022104,0.0207774043,-0.0513011515,0.0109499702,24.9883957,5.74700165,-44.2960815,2
2.564847,0.013749662,0.0215009566,0.00864941322,0.999636903,0.0427780936,0.0278648862,0.0167085469,0.419219063,-0.273225825,-9.79387527,0.042112939,0.0730119169,-0.336889776,0.0602803417,-0.0679882467,0.00985541102,24.8727417,5.79426575,-44.2602234,2
2.574805,0.0141215583,0.0211924704,0.00867609712,0.999638099,0.0421542846,0.0286045318,0.0167550108,0.413100836,-0.280476381,-9.79393022,0.0441909874,0.0213052566,-0.372298943,0.08313898,-0.0508271605,0.00536642456,24.8487625,5.88520813,-44.2703552,2
2.584763,0.0145245233,0.0210273906,0.00867957899,0.999635797,0.0418175937,0.0294077231,0.0167500353,0.40979372,-0.28834969,-9.7938402,0.00574921118,-0.0210996693,-0.312533918,0.0712753907,-0.0144209517,-0.001172435,24.6555023,5.61830902,-44.1271973,2
2.594721,0.0147670022,0.0210650994,0.0086532654,0.999631705,0.0418900755,0.0298921424,0.0166862485,0.410497704,-0.293098126,-9.79367011,-0.0123127709,-0.0405925245,-0.13179215,0.0237361006,0.028111292,-0.00644229632,24.7264862,5.69923401,-44.254425,2
2.604679,0.0147703036,0.021260515,0.00861776353,0.999627805,0.0422821213,0.0299005036,0.016609251,0.414337136,-0.293180087,-9.79350586,0.0208083217,-0.0643029426,0.0250134452,-0.019128276,0.0494994074,-0.00812328421,24.7969742,5.6696701,-44.1262207,2
2.614637,0.0146359143,0.0215410776,0.00860385954,0.999623856,0.0428460159,0.029635829,0.0165787388,0.419862877,-0.290585669,-9.79334745,0.0546371973,-0.0451998904,0.00315817177,-0.0296259597,0.0607150085,-0.000756829046,24.7942886,5.51125336,-44.3416443,2
2.624595,0.0145324696,0.0217933873,0.00862984027,0.999619672,0.0433517214,0.029434282,0.016627661,0.424817906,-0.288610021,-9.79319255,0.0715293319,0.0182160767,-0.0801958187,-0.00958221313,0.0369961001,0.00781535357,24.6977921,5.62931824,-44.4064331,2
2.634553,0.0145814346,0.0218733068,0.00869704707,0.999616669,0.0435089105,0.0295364509,0.0167576312,0.426356002,-0.289611526,-9.79309611,0.0996194811,0.0388200897,-0.130271225,0.0312104952,-0.00499631744,0.0185654704,24.7882767,5.63450623,-44.3373718,2
2.644511,0.0148574813,0.0217316494,0.00881658397,0.999614654,0.0432175768,0.0300912509,0.0169891259,0.423495936,-0.295049827,-9.79305753,0.158144735,0.0367765464,-0.184029118,0.0780682862,-0.0514690094,0.0349268652,24.7193069,5.66326141,-44.3789673,2
2.654469,0.0153538504,0.02138997,0.00903973429,0.999612488,0.0425191213,0.0310875275,0.0174249264,0.416643111,-0.304815397,-9.79305285,0.239068174,0.0448960852,-0.199895965,0.117389664,-0.084956333,0.0621477962,24.7200623,5.67926025,-44.4169617,2
2.664427,0.0160290179,0.020934618,0.00940165815,0.99960821,0.0415852975,0.032444808,0.0181353646,0.407480365,-0.318119061,-9.79301486,0.284293546,0.0579005099,-0.181228674,0.146686032,-0.0939016268,0.0908588022,24.6706619,5.55491638,-44.5692139,2
2.674385,0.0168113952,0.0204870586,0.00988341791,0.999599999,0.0406601438,0.0340208679,0.0190822964,0.39839927,-0.333566403,-9.79287457,0.238158402,0.0808296597,-0.109543494,0.156826124,-0.0836307853,0.11061421,24.5651474,5.40366364,-44.5686035,2
2.684342,0.0175431854,0.0201245968,0.0104322934,0.999589162,0.0399023474,0.0354993029,0.0201639852,0.39095805,-0.348056116,-9.79267057,0.131725405,0.0477346513,0.0774491504,0.128193423,-0.0626496002,0.115776211,24.5656281,5.35193634,-44.6707458,2
2.6943,0.0180891453,0.0198551152,0.0109857507,0.999578865,0.0393325473,0.0366074771,0.0212597682,0.385362715,-0.358916533,-9.79249989,0.0530747702,0.00592259498,0.229310275,0.0825726688,-0.0428383425,0.111799583,24.5155869,5.35402679,-44.5195007,2
2.704258,0.0183837361,0.019661086,0.0115149334,0.999571334,0.0389187026,0.0372130918,0.0223144057,0.381301603,-0.364851549,-9.79243969,-0.0757423099,-0.0479973939,0.339682621,0.0311297216,-0.0364640653,0.103548035,24.5284119,5.25684357,-44.6140747,2
2.714216,0.0184323286,0.0194495727,0.0119769353,0.999569156,0.038477144,0.0373233316,0.0232448287,0.376976068,-0.365931892,-9.79256711,-0.206090618,-0.0175881175,0.401909653,-0.0161106102,-0.0445508733,0.0845500454,24.5271378,5.1245575,-44.506073,2
2.724174,0.0182757769,0.0192039606,0.0123315238,0.999572561,0.0379759057,0.0370180123,0.0239692856,0.372071819,-0.362939797,-9.7928658,-0.243533812,-0.0355439724,0.368390245,-0.0522342585,-0.0519113205,0.0579498559,24.5785065,5.12369537,-44.6780701,2
2.734132,0.017934744,0.018910703,0.0125615653,0.999581491,0.0373883864,0.0363375686,0.0244528765,0.366327431,-0.356271389,-9.79332699,-0.209358278,-0.089497827,0.317975232,-0.0884536281,-0.0592508428,0.0329440273,24.5877991,5.07627869,-44.7232056,2
2.74409,0.0174043391,0.0186661525,0.0126780895,0.999593956,0.036907172,0.035275162,0.0247140281,0.361628459,-0.345859447,-9.79387527,-0.135676335,-0.163056875,0.245499778,-0.126803145,-0.0320924595,0.0125181163,24.5735245,5.1861496,-44.675293,2
2.754048,0.0166788031,0.01860734,0.0127171374,0.999606889,0.0368051934,0.0338242064,0.0248203237,0.360647777,-0.331638906,-9.7944031,-0.141429382,-0.203164684,0.170310974,-0.166071609,0.0104279658,0.00016511837,24.5482788,5.26748657,-44.3937378,2
2.764006,0.0157729103,0.0187308093,0.0127148025,0.999619269,0.0370737434,0.0320155962,0.0248443304,0.36329968,-0.313912111,-9.79488942,-0.140789221,-0.18587628,0.160621939,-0.195644945,0.0429797806,-0.00631355355,24.4848404,5.50437164,-44.6164551,2
2.773964,0.0147424237,0.0189826712,0.0127189458,0.999630259,0.0376020212,0.0299613071,0.0248825188,0.368497505,-0.293776099,-9.79531963,-0.104088589,-0.11189024,0.182600547,-0.215029493,0.0587406829,-0.00119153131,24.4745865,5.52341461,-44.615509,2
2.783922,0.0136635242,0.0191795449,0.0127699987,0.999641166,0.0380202168,0.0278106729,0.025018996,0.372616996,-0.272694385,-9.79577322,-0.0743899089,0.0284870214,0.2536825,-0.212156475,0.0226244889,0.0145213846,24.5073013,5.69718933,-44.5996094,2
2.79388,0.0127339581,0.0192195125,0.0129024721,0.999650979,0.0381190795,0.0259579008,0.0253176897,0.373604034,-0.254531463,-9.79622447,-0.165458821,0.0950189651,0.0699298608,-0.15377371,0.00274362904,0.0316904411,24.4444046,5.57038116,-44.4430847,2
2.803838,0.0122187062,0.0191228485,0.0130968736,0.999656755,0.0379333991,0.0249325066,0.0257282773,0.371794756,-0.244479039,-9.79654946,-0.162452442,-0.0458167254,-0.249819979,-0.0535717383,-0.044437997,0.0419907495,24.4375916,5.66539001,-44.4697266,2
2.813796,0.0122097881,0.0187746874,0.0132655867,0.999661238,0.0372328666,0.024911995,0.0260747601,0.364932067,-0.244277945,-9.7968125,-0.0824169289,-0.148669197,-0.409220268,0.0404902734,-0.0862680525,0.0216459483,24.5860291,5.59306335,-44.4260559,2
2.823754,0.0125321884,0.0183264991,0.0132739869,0.999665396,0.0363278696,0.0255452998,0.0260912202,0.356060157,-0.250486572,-9.79698201,-0.139684876,-0.169844233,-0.433141826,0.0804882869,-0.0952450335,-0.0149099315,24.393074,5.79225922,-44.5686951,2
2.833712,0.0129467076,0.0178779957,0.0131482322,0.999669967,0.0354234479,0.0263580495,0.0258367113,0.347192084,-0.258454245,-9.79709365,-0.212219623,-0.127609586,-0.304342428,0.0797069222,-0.0835004821,-0.0301141851,24.5560379,5.73099518,-44.6898193,2
2.84367,0.0132611802,0.0175063027,0.0129854118,0.999674568,0.0346763661,0.0269716524,0.0255101074,0.339867184,-0.264469486,-9.7971901,-0.136660012,-0.0765534071,-0.167477212,0.0445723683,-0.0709165111,-0.0280736703,24.4494629,5.68418121,-44.6227417,2
2.853628,0.0133790253,0.0171562699,0.0128543333,0.999680768,0.033976726,0.027193925,0.0252534113,0.333010596,-0.266648438,-9.79736604,0.000231653331,-0.0290342617,-0.0553717586,0.00373705686,-0.0700381845,-0.0188988149,24.4343796,5.66841125,-44.6714478,2
2.863586,0.013330361,0.0168274916,0.0128060688,0.999687524,0.0333214344,0.0270866912,0.0251673891,0.32659134,-0.265597212,-9.79761095,0.136985262,0.0420398555,-0.0527332268,-0.0217629764,-0.0599804856,0.00387280947,24.4143066,5.73323059,-44.6342773,2
2.873544,0.0131846258,0.0165852862,0.0128872022,0.99969251,0.0328382313,0.0267918243,0.025340943,0.321859599,-0.262706605,-9.79784535,0.207108636,0.0969093454,-0.10143033,-0.0390405357,-0.0335574299,0.0286805723,24.4124451,5.73310852,-44.6355286,2
2.883502,0.0129553968,0.0165151099,0.0130874128,0.999694105,0.0326981758,0.0263381927,0.0257506751,0.320491233,-0.258259581,-9.79800843,0.136650952,0.111167022,-0.128501292,-0.0545542501,0.0091639366,0.0477562658,24.4340897,5.73518372,-44.7758789,2
2.89346,0.0126542782,0.0166625052,0.0133502202,0.999691981,0.0329937912,0.0257485021,0.0262822488,0.323392617,-0.252478641,-9.79806396,-0.0103514443,0.0527136453,-0.131438515,-0.0651494116,0.056054946,0.0529642254,24.3489532,5.78627777,-44.5219727,2
2.903418,0.0123195487,0.0170439216,0.0135922645,0.999686514,0.0337592976,0.025097339,0.0267676852,0.330898499,-0.246094986,-9.7979757,-0.184104704,-0.0709858909,-0.154271693,-0.0689353645,0.0936971307,0.0393232517,24.4962692,5.70835114,-44.5214844,2
2.913376,0.0119894142,0.017472825,0.0137468951,0.99968098,0.0346221332,0.0244540101,0.0270774447,0.33935781,-0.239788013,-9.79784301,-0.209323426,-0.185181576,-0.101133977,-0.0602789074,0.0746218115,0.0176989902,24.5384293,5.75717163,-44.4573975,2
2.923334,0.0117480471,0.0177276953,0.0137939392,0.999678703,0.0351372249,0.0239799127,0.0271736386,0.344408517,-0.235140078,-9.7977793,-0.160205321,-0.243399774,-0.0609445903,-0.0339271948,0.0278441887,-0.0012877495,24.5973206,5.74781799,-44.4539795,2
2.933292,0.0117074157,0.0177283448,0.0137561065,0.999679699,0.0351404991,0.023897352,0.0270993479,0.344441287,-0.234330661,-9.79779742,-0.12223014,-0.202609937,-0.123474988,0.0187289789,-0.0251272582,-0.0108344592,24.4962234,5.86065674,-44.3394775,2
2.94325,0.0119745512,0.0175206004,0.0136936549,0.999681103,0.0347194033,0.0244237353,0.0269702857,0.340311092,-0.239491204,-9.79781671,-0.0902673501,-0.143579856,-0.244811796,0.0887203068,-0.0588258319,-0.00830738619,24.5554962,5.86602783,-44.292572,2
2.953208,0.0125769998,0.0171535724,0.013665629,0.999680482,0.0339701148,0.025617593,0.0269031156,0.33295967,-0.251195286,-9.79777637,0.0400861824,-0.0706739937,-0.313835063,0.148864001,-0.0926032886,0.00368513307,24.4540253,5.78767395,-44.4030762,2
2.963166,0.0134107103,0.0166189774,0.0137034235,0.999678104,0.0328778566,0.0272716411,0.0269655741,0.322243666,-0.267410289,-9.79770565,0.15420177,-0.0281227912,-0.26647067,0.179137751,-0.126591891,0.0187341236,24.4071655,5.68661499,-44.4126282,2
2.973124,0.0143169024,0.0159364572,0.0138000705,0.999675316,0.0314859185,0.0290684499,0.0271496618,0.308589929,-0.285023979,-9.79764836,0.217086242,-0.0112572705,-0.147864749,0.177365452,-0.149102792,0.0315128826,24.3345718,5.65955353,-44.4116821,2
2.983082,0.0151782309,0.0151744374,0.0139599541,0.999672268,0.0299337957,0.0307750395,0.0274665732,0.293367445,-0.301752411,-9.79761505,0.201333761,0.00337623497,-0.0762216544,0.163286388,-0.156365499,0.0438007079,24.2484436,5.49417114,-44.4567566,2
2.99304,0.0159584051,0.0144628877,0.014160314,0.999667865,0.0284829416,0.0323214349,0.0278677726,0.279138611,-0.316909831,-9.7975525,0.166631135,0.0171869163,-0.0716460171,0.141911477,-0.127945676,0.0462352969,24.2664642,5.49880981,-44.7261963,2
3.002998,0.0165852365,0.0139315322,0.0143736874,0.999662181,0.0273957262,0.0335660651,0.0282952596,0.268475379,-0.329108839,-9.79744846,0.0961907671,0.0323786768,-0.009800094,0.103059947,-0.0880730897,0.0463234484,24.1738358,5.42504883,-44.5487366,2
3.012956,0.0169504206,0.0136119728,0.0145911021,0.999657244,0.0267388692,0.03429317,0.0287315879,0.262033327,-0.336235221,-9.79738065,0.0412814018,0.136320551,0.132736738,0.0371909998,-0.0413076282,0.0467614979,24.2295151,5.49273682,-44.7185669,2
3.022914,0.0169550586,0.0135210974,0.0148216907,0.999654983,0.0265489976,0.0343059573,0.0291959759,0.260172976,-0.336360528,-9.79742624,-0.0197060413,0.175800621,0.23962358,-0.0354696214,0.0088455556,0.0454080775,24.2894363,5.35217285,-44.572052,2
3.032872,0.0166313564,0.0136411949,0.0150484562,0.999655442,0.0267908227,0.0336681701,0.029653948,0.262547925,-0.330109577,-9.7975753,-0.108122594,0.123461252,0.269849791,-0.0925922543,0.0382495709,0.040127676,24.2119751,5.39302063,-44.6856079,2
3.04283,0.0161094309,0.0138717414,0.0151968468,0.999658503,0.0272622751,0.0326352654,0.0299568121,0.267176133,-0.319985804,-9.79778573,-0.213756184,0.04959186,0.141072605,-0.111063674,0.0595993325,0.0152124744,24.1223907,5.42196655,-44.6828003,2
3.052788,0.0155683157,0.0142096764,0.0152222001,0.999661962,0.0279533399,0.031563952,0.0300111184,0.273956404,-0.309485234,-9.79793595,-0.275004543,-0.0155264358,-0.019787235,-0.101365849,0.0754224211,-0.00880201161,24.1866226,5.43170166,-44.6016846,2
3.062746,0.0151352692,0.0145657717,0.0151478132,0.999664596,0.0286806905,0.03070649,0.0298630655,0.281090366,-0.301080485,-9.79799615,-0.230812825,-0.0573003521,-0.102027711,-0.0696396083,0.0690207183,-0.0230001211,24.1220551,5.38824463,-44.5970459,2
3.072704,0.0148797916,0.0148775847,0.0150268866,0.999665745,0.0293155953,0.0302013545,0.0296188124,0.287315524,-0.296129092,-9.79796634,-0.150397793,-0.039656504,-0.12405425,-0.0309091825,0.0570253879,-0.0268412363,24.3179245,5.43562317,-44.7090149,2
3.082662,0.0148021247,0.0151378757,0.0148955337,0.999664989,0.0298425377,0.0300498275,0.0293504041,0.292479775,-0.294643785,-9.79785821,-0.101393249,-0.0203421472,-0.0849573341,0.000289215241,0.0489299111,-0.027950976,24.2457352,5.49038696,-44.4182434,2
3.09262,0.0148434434,0.0153489752,0.0147893472,0.999662712,0.0302669079,0.0301354374,0.0291303987,0.296636913,-0.295482957,-9.79770798,-0.0323775808,-0.0423975281,-0.00729600223,0.0155226104,0.0297904126,-0.0126909874,24.2886887,5.43109894,-44.6511536,2
3.102578,0.0149379645,0.0153946468,0.0147692925,0.999660886,0.0303562229,0.0303251814,0.0290861107,0.29751028,-0.297342869,-9.79762498,0.0798750624,-0.0314097404,0.104999421,0.0208364148,-0.0122236172,0.00540492591,24.4491119,5.47892761,-44.7789307,2
3.11253563,0.015042375,0.0152410622,0.0148393051,0.999660636,0.0300438626,0.0305316172,0.0292277957,0.294448025,-0.299366375,-9.79765596,0.15700795,-0.0371673906,0.198702956,0.0199563913,-0.0466797128,0.0235497653,24.4169464,5.42063904,-44.6533203,2
3.12249363,0.0151343322,0.0149570169,0.0149825687,0.999661434,0.0294685626,0.0307114331,0.0295204693,0.2888098,-0.301128927,-9.79776994,0.0587976597,-0.0180468576,0.217521638,0.0135325808,-0.0630475059,0.0333310254,24.3426666,5.31016541,-44.5482788,2
3.13245163,0.0151728933,0.0146358211,0.0151294253,0.99966329,0.0288203137,0.0307832935,0.0298230744,0.282457727,-0.301833313,-9.79793361,-0.108579526,0.0172237777,0.212447988,-0.00179391098,-0.0631527007,0.0263452865,24.2222443,5.43106079,-44.6464233,2
3.14240963,0.015132088,0.0143405006,0.0152207708,0.999666836,0.0282278456,0.0306954601,0.0300160407,0.276653461,-0.300972367,-9.79812533,-0.190462896,-0.00279076323,0.144404964,-0.0170801897,-0.0540143251,0.00905204844,24.3674316,5.42267609,-44.4908142,2
3.15236762,0.0150237678,0.0141240356,0.0152078122,0.99967179,0.0277983259,0.0304719807,0.0299996737,0.272446804,-0.298781798,-9.79831063,-0.22546129,-0.0806979413,-0.00938683703,-0.0263197608,-0.0301436279,-0.0142143909,24.2898331,5.39129639,-44.5752869,2
3.16232563,0.0148904193,0.014033719,0.0150866836,0.999676894,0.0276251832,0.0301992509,0.0297636454,0.27075253,-0.296108469,-9.79843864,-0.174536245,-0.193055652,-0.142735569,-0.0251093544,-0.00766921137,-0.0345633402,24.2281113,5.27520752,-44.6898499,2
3.17228363,0.0148073669,0.0140375346,0.0148827585,0.999681078,0.0276413453,0.0300276358,0.0293577556,0.270912306,-0.29442627,-9.79848481,-0.0928442331,-0.19608459,-0.251625568,-0.00617949199,0.00805686228,-0.0461591966,24.218956,5.31274414,-44.659729,2
3.18224162,0.0148451151,0.014117852,0.0146553835,0.999682768,0.0278078026,0.0300991613,0.028899417,0.272542738,-0.295127367,-9.79841876,0.00264012098,-0.118020833,-0.34087563,0.023548577,0.0207212586,-0.0426273122,24.1922455,5.29642487,-44.4289551,2
3.19219963,0.015021179,0.0142260616,0.0144714636,0.999681243,0.0280249544,0.0304492307,0.0285234046,0.274667567,-0.298558803,-9.7982551,0.0688996775,-0.012536588,-0.282231718,0.0474926792,0.0197105072,-0.0306964274,24.1192703,5.31496429,-44.5030823,2
3.20215762,0.0152718408,0.0143004518,0.0143603409,0.999677999,0.028170291,0.030949506,0.0282919666,0.27608737,-0.303462521,-9.79806454,0.110575522,0.0620982721,-0.17139117,0.0514762364,0.00733959116,-0.0128431302,24.2356873,5.34520721,-44.4806824,2
3.21211563,0.0154716874,0.0143026827,0.014325755,0.999675402,0.0281703575,0.0313482582,0.0282172426,0.276084594,-0.307371055,-9.79794296,0.113421413,0.0915947993,0.00476034627,0.0248987991,-0.00808001868,-0.000745378202,24.2817917,5.51696777,-44.4465332,2
3.22207363,0.015506098,0.0142226265,0.0143253976,0.999676002,0.0280092551,0.0314148046,0.0282181032,0.274505544,-0.308023308,-9.79796693,0.0940511978,0.0419688543,0.149633512,-0.0137937348,-0.0228517745,0.000137726078,24.2817917,5.51696777,-44.4465332,2
3.23203162,0.0153701244,0.0140835693,0.014313155,0.999680239,0.0277351409,0.0311386117,0.0282016315,0.271822114,-0.305316113,-9.7981265,0.00799952912,0.00933413872,0.101011228,-0.0422359556,-0.0267593637,-0.00690477435,24.2754288,5.43294525,-44.4385681,2
3.24198963,0.0151643939,0.0139513489,0.0142709699,0.999685848,0.0274775332,0.0307222913,0.0281268254,0.26930151,-0.301235365,-9.79832232,-0.0298820194,0.00764759214,-0.0699783761,-0.0421094559,-0.0219725966,-0.0111477226,24.2925873,5.2310257,-44.4039917,2
3.25194762,0.0150130097,0.0138294756,0.014227798,0.999690468,0.0272391506,0.0304149405,0.0280481919,0.266968263,-0.298222685,-9.79847838,0.0209338112,-0.00209876238,-0.234423673,-0.0192515757,-0.024662124,-0.00595600437,24.0879288,5.26252747,-44.3800354,2
3.26190563,0.015025869,0.0137159864,0.0142072069,0.999692106,0.02701237,0.0304369163,0.0280101101,0.264745965,-0.298438099,-9.79853216,0.0809162054,0.0256499348,-0.331933615,0.0205459036,-0.0181112811,-0.00131198415,24.032692,5.2750473,-44.3790588,2
3.27186363,0.0152130408,0.0136408019,0.0142161242,0.999690208,0.0268565834,0.0308093684,0.0280253709,0.263216472,-0.302088895,-9.79846143,0.0894786657,0.026607272,-0.312850728,0.0503652394,-0.0137174483,0.00631481409,24.0974808,5.29669952,-44.4675293,2
3.28182162,0.0154779495,0.0135685557,0.0142661148,0.999686438,0.0267032652,0.0313384628,0.0281207679,0.261709885,-0.307275047,-9.79834044,0.0968211191,0.0659107613,-0.158844993,0.05530487,-0.0186421648,0.0158489328,24.1298141,5.33086395,-44.7383423,2
3.29177963,0.0157356643,0.0134627366,0.0143813032,0.999682216,0.0264808448,0.0318539374,0.0283479513,0.259526313,-0.312327581,-9.79823873,0.150180771,0.0654267407,0.00640285278,0.0480766334,-0.0270752013,0.0333880559,24.0449142,5.36730957,-44.6469421,2
3.30173762,0.0160094812,0.0132916636,0.0145970885,0.999676994,0.0261240395,0.0324023288,0.0287782379,0.256025721,-0.317702698,-9.79815807,0.185254897,0.0320457185,0.0534580339,0.0642814338,-0.0443314202,0.0553114638,24.300209,5.2845459,-44.6614685,2
3.31169563,0.0164256066,0.0130879425,0.0149058754,0.999668356,0.0256945442,0.0332366118,0.0293923717,0.251810532,-0.325879831,-9.79799849,0.143980254,0.043215603,-0.0307978738,0.100827537,-0.0350464806,0.0687105879,24.2574539,5.33178711,-44.4562988,2
3.32165363,0.0170182996,0.0129405065,0.0152323339,0.999655465,0.0253713924,0.0344259002,0.0300360309,0.248634259,-0.337536074,-9.79768519,0.0458518515,0.0376635218,-0.088721655,0.131055221,-0.0269592609,0.0655006766,24.1508102,5.06290436,-44.3179626,2
3.33161162,0.017664677,0.0128278225,0.0154968486,0.999641664,0.0251176214,0.0357218725,0.0305536348,0.246136706,-0.350237406,-9.79730233,-0.0595392901,-0.000362293974,0.0241711492,0.12288814,-0.0221673958,0.0439576842,24.1400986,5.12469482,-44.6397095,2
3.34156963,0.0181925112,0.0127320164,0.0156513674,0.999630958,0.0249045746,0.0367784326,0.0308536845,0.244040063,-0.360591919,-9.79697909,-0.131363641,-0.0417823553,0.168099143,0.0850917548,-0.0189060885,0.0214561019,24.2020187,5.08128357,-44.6010742,2
3.35152763,0.0185032256,0.0126597619,0.0156935657,0.999625527,0.0247491097,0.0373986643,0.0309334447,0.242511392,-0.366670106,-9.79679145,-0.161408486,-0.0681755645,0.252905086,0.0394692197,-0.0067998236,-0.00217629457,24.105072,5.01641846,-44.4133911,2
3.36148563,0.0185940772,0.0126849569,0.0156427809,0.999624294,0.0247987049,0.0375798834,0.0308287236,0.242995613,-0.36844603,-9.79671313,-0.155308653,-0.0885460062,0.203147076,0.00043100887,0.0174767543,-0.0181848221,24.0409622,4.89246368,-44.4580383,2
3.37144363,0.0185216981,0.0128074925,0.0155318224,0.999625793,0.0250502177,0.0374361254,0.0306038037,0.245460926,-0.367037223,-9.79670436,-0.138620353,-0.074691778,0.12742168,-0.025655834,0.029915195,-0.0273624174,24.0097351,5.06744385,-44.3769531,2
3.38140162,0.0183713906,0.0129517392,0.0153806535,0.999629087,0.0253489325,0.0371361003,0.0302995374,0.248390111,-0.364097041,-9.79674002,-0.125239076,-0.0281019128,0.0825666395,-0.0331837907,0.0259931572,-0.0342658646,24.1634903,5.04438782,-44.4742432,2
3.39135963,0.018238406,0.0130640686,0.0152110304,0.999632655,0.0255838648,0.0368692007,0.0299591884,0.25069415,-0.361481452,-9.79677859,-0.0693340686,-0.00288494432,0.0175122758,-0.0176252611,0.019177407,-0.0349535309,24.0432053,4.89630127,-44.5144043,2
3.40131763,0.0182004728,0.0131593785,0.0150482697,0.99963459,0.0257816705,0.0367919961,0.0296309136,0.252632735,-0.360724825,-9.79675638,-0.020096575,-0.0310252163,-0.0811211169,0.00241902005,0.0183907114,-0.0319854356,23.993988,4.90635681,-44.4918518,2
3.41127563,0.0182533144,0.0132385074,0.014905137,0.999634617,0.0259437696,0.0368963043,0.0293402638,0.254219785,-0.361747044,-9.79667806,0.0199155924,-0.0256634701,-0.0831447317,0.0170502346,0.0102707762,-0.0247667078,23.9881058,4.84354401,-44.3881226,2
3.42123363,0.0183442607,0.013241398,0.0147852623,0.999634694,0.025951417,0.0370751671,0.0290980145,0.254293033,-0.363499915,-9.79661084,0.0683249646,-0.000716843032,-0.00629822336,0.0178672913,-0.00950505864,-0.0247312877,24.075592,4.85483551,-44.3540344,2
3.43119162,0.0184085409,0.0132129471,0.0146581376,0.999635861,0.0258974109,0.0371996085,0.0288430885,0.253762781,-0.364719411,-9.79657927,0.0612236812,-0.00263973739,0.0137216514,0.00667684432,-2.53543258E-05,-0.0274999887,23.9165878,4.7417984,-44.5753479,2
3.44114963,0.0183946905,0.0132632539,0.0145160799,0.999637528,0.0260037448,0.0371696651,0.028557293,0.254804764,-0.364425981,-9.79656349,0.0247175858,-0.026276597,0.0398924499,-0.0143605303,0.0162369721,-0.0300089531,23.9269409,4.71561432,-44.431427,2
3.45110763,0.0182446585,0.0133454641,0.0143554054,0.999641486,0.0261783172,0.0368677456,0.028236488,0.256517833,-0.361467168,-9.79662837,-0.00901793065,-0.0126256363,0.0758703568,-0.0452248976,0.0148748327,-0.0362248085,24.1149063,4.8971405,-44.5637207,2
3.46106562,0.0179695544,0.0134160816,0.0141745343,0.999648046,0.026333703,0.0363147746,0.0278789186,0.258045317,-0.356048029,-9.79678678,-0.0222171473,0.0338794367,0.036075522,-0.0603053048,0.01654277,-0.0357960425,24.1642609,4.90737152,-44.5856323,2
3.47102363,0.0176905844,0.0135177688,0.0140211998,0.999653857,0.0265501801,0.0357556107,0.0275755362,0.260171332,-0.350568063,-9.79692823,0.00992382998,0.0816705309,-0.116114104,-0.0485269092,0.0229439847,-0.0273097623,24.0446854,4.96753693,-44.629364,2
3.48098162,0.01751218,0.0136016775,0.0139338734,0.999657096,0.0267259245,0.0353987906,0.0274023946,0.261896421,-0.347071051,-9.79700656,0.0931929187,0.108250641,-0.235895499,-0.0211205836,0.0100553501,-0.00727932947,24.1424103,5.01452637,-44.7097168,2
3.49093963,0.0175143242,0.0136052787,0.0139555624,0.999656671,0.0267323042,0.0354037562,0.0274456095,0.261958873,-0.347119712,-9.79700305,0.197727169,0.120868861,-0.291713832,0.0226122104,-0.00976526644,0.0168501288,24.2187576,5.11592865,-44.538147,2
3.50089763,0.0177496875,0.0135489895,0.014105112,0.99965116,0.0266080634,0.0358769074,0.0277408094,0.260737277,-0.351756798,-9.79687036,0.22498569,0.127451199,-0.36172728,0.0710039809,-0.0117890025,0.0445307568,24.2044067,5.17087555,-44.5803833,2
3.51085562,0.0181941678,0.0134947109,0.0143590942,0.999640297,0.0264782006,0.0367710761,0.0282396486,0.259456608,-0.360519804,-9.7965857,0.158480543,0.105837808,-0.331635508,0.100705907,-0.0113728121,0.059101861,24.2446899,5.0929184,-44.7247009,2
3.52081363,0.0187230975,0.0134365009,0.0146487291,0.999627156,0.0263363332,0.0378349147,0.0288079871,0.258056532,-0.370945263,-9.79623324,0.0712951395,0.0860364711,-0.201204125,0.105700396,-0.00954481866,0.0604614057,24.2456207,5.04341888,-44.6367188,2
3.53077162,0.0192245579,0.0134413616,0.0149258207,0.99961341,0.0263213392,0.0388452669,0.0293496437,0.257899661,-0.380846151,-9.79585797,-0.0428711187,0.0492504262,-0.0872568432,0.0920160934,0.012064172,0.0548138693,24.2085953,4.91578674,-44.7194824,2
3.54072963,0.0196291689,0.0135229762,0.0151789554,0.99960063,0.0264631498,0.0396635875,0.0298427945,0.259280466,-0.388864951,-9.79550609,-0.0987200115,0.0114801195,0.00561550179,0.0677261949,0.0183279272,0.0490736924,24.2748795,4.84732056,-44.6543884,2
3.55068763,0.0198991525,0.013564417,0.015410942,0.999591207,0.0265289684,0.0402109522,0.030298567,0.259919513,-0.394228487,-9.79527462,-0.0706286202,-0.00679912209,0.0954658686,0.0403534286,-0.00316910888,0.0464177206,24.2102585,4.78447723,-44.6224365,2
3.56064562,0.0200774782,0.0134467484,0.0156335784,0.999585803,0.0262792377,0.0405698942,0.0307443894,0.257469599,-0.397745628,-9.79519746,-0.0271780028,-0.0299174743,0.12112638,0.0304770954,-0.0459141731,0.0454824194,24.2971115,4.86707306,-44.6039734,2
3.57060363,0.0202657704,0.0131035191,0.015858135,0.999582991,0.0255775753,0.0409416705,0.0312031451,0.250592809,-0.401388478,-9.79522727,0.0238418624,-0.0337564679,0.0580091214,0.0444252118,-0.0906245783,0.0485942848,24.1884689,4.90907288,-44.5022278,2
3.58056162,0.0205707179,0.0125923334,0.0161080491,0.999579292,0.0245349897,0.0415417503,0.0317171543,0.240374361,-0.407268257,-9.79524072,0.0654842248,0.0159670922,-0.131867554,0.0775991455,-0.110488296,0.0597784966,24.1884689,4.90907288,-44.5022278,2
3.59051963,0.0210574893,0.0120843192,0.0164449801,0.999569929,0.0234890396,0.0425071186,0.0324018169,0.230119564,-0.416726917,-9.79508874,0.124371225,0.0786967758,-0.333131884,0.113697797,-0.0905358568,0.082313478,24.2563705,4.90223694,-44.6264954,2
3.60047763,0.0217044121,0.011722802,0.0169027759,0.999552848,0.0227251394,0.0437997127,0.0333196768,0.222624587,-0.429391132,-9.79471523,0.154311843,0.103780912,-0.399196886,0.139535531,-0.052063562,0.107792474,24.2491684,4.85804749,-44.5425415,2
3.61043562,0.0224182229,0.0115973517,0.0174850777,0.999528558,0.0224246172,0.0452362956,0.0344757753,0.219666998,-0.44346525,-9.79415468,0.135422342,0.050368507,-0.292616334,0.142143026,0.00348493201,0.130811229,24.0921021,4.6533432,-44.5346069,2
3.62039363,0.0230883673,0.0117650317,0.0181404492,0.99949961,0.0227072195,0.0465973352,0.035765912,0.222420918,-0.456798413,-9.79348014,0.0816419807,-0.0703736225,-0.115521984,0.12255574,0.0652303249,0.131577954,24.1115189,4.59912109,-44.4046326,2
3.63035163,0.0235875445,0.0122117515,0.018758447,0.999471223,0.0235545414,0.0476262937,0.0369713002,0.230707886,-0.466877836,-9.79281261,-0.0779285862,-0.173120953,0.120388128,0.0745327771,0.114595942,0.113581806,24.1194153,4.42767334,-44.4428406,2
3.64030963,0.02377576,0.0128400054,0.0192542948,0.99944949,0.0247814245,0.0480382668,0.0379296682,0.242717564,-0.470913302,-9.79232921,-0.236882355,-0.235973533,0.393740959,0.00103752292,0.136388853,0.0779071674,24.1044464,4.30307007,-44.4267578,2
3.65026763,0.0235784767,0.0134834589,0.0195536918,0.999439868,0.0260622812,0.0476759012,0.0385028912,0.255264362,-0.467363793,-9.79218016,-0.337116789,-0.293691891,0.604580927,-0.0742633864,0.124292284,0.0341483913,24.0423355,4.3768158,-44.4536133,2
3.66022562,0.0230563751,0.0140204558,0.0196457666,0.999442876,0.027152247,0.0466548684,0.0386748348,0.265950153,-0.457362002,-9.79236838,-0.369200757,-0.366840714,0.632003187,-0.128140718,0.0925074518,-0.00367595395,24.2515488,4.38741302,-44.4529419,2
3.67018363,0.022340148,0.0143246118,0.0195670239,0.99945628,0.0277913846,0.0452320046,0.0385216584,0.272226585,-0.443423201,-9.79283658,-0.337319618,-0.354143985,0.538798834,-0.152281299,0.0297451019,-0.0329533815,24.2159882,4.50411224,-44.34552,2
3.68014163,0.0216082106,0.0142551441,0.0193773756,0.999477028,0.0276879978,0.0437602399,0.0381642177,0.271231911,-0.429004398,-9.79350644,-0.203446753,-0.254688608,0.3655898,-0.136190742,-0.0544755012,-0.0445559733,24.3375473,4.54086304,-44.306427,2
3.69009963,0.021048223,0.0137936036,0.0191579813,0.999499721,0.0267944544,0.0426168001,0.0377593801,0.262493839,-0.417801561,-9.79422891,-0.0576406351,-0.134210354,0.123749129,-0.0894571841,-0.124386482,-0.0417413563,24.0541382,4.61698914,-44.3562012,2
3.70005763,0.0207575205,0.013056607,0.0189565858,0.999519557,0.0253387417,0.0420024618,0.0373945989,0.248242446,-0.411782337,-9.79485552,0.0650980202,-0.0493995523,-0.106066173,-0.0325603448,-0.163966119,-0.0352243371,24.206337,4.62741852,-44.4885254,2
3.71001562,0.0207411062,0.0122715873,0.0187861607,0.999533089,0.0237755648,0.0419362066,0.037086826,0.232931699,-0.411133152,-9.79525884,0.113029765,0.0114523182,-0.310367095,0.0178841483,-0.144378364,-0.027380906,24.0928574,4.59951782,-44.4465332,2
3.71997363,0.0209268785,0.0117030193,0.0186710884,0.999538137,0.0226359371,0.0422840417,0.0368764259,0.221765358,-0.414541244,-9.79537457,0.133174362,0.0446382927,-0.398836821,0.0498793647,-0.0831522867,-0.0133322002,24.0986023,4.50304413,-44.3830566,2
3.72993163,0.0212232401,0.011440076,0.0186345172,0.999535674,0.0221006581,0.0428662586,0.0368082545,0.216516699,-0.420245666,-9.7952489,0.137525196,0.0964310604,-0.401805608,0.0644900426,-0.0242465641,0.00298350444,24.0833817,4.52589417,-44.4610901,2
3.73988863,0.0215317818,0.0114844431,0.0186722065,0.999527881,0.0221767314,0.0434858163,0.0368754302,0.217256046,-0.42631578,-9.79497008,0.100124636,0.135271846,-0.318287367,0.058811646,0.0350074396,0.0152625423,24.1392136,4.49343872,-44.3153076,2
3.74984662,0.0218108177,0.0117354113,0.0187782746,0.99951696,0.0226642755,0.0440555557,0.0370709417,0.222025945,-0.431897671,-9.79461879,0.0944568925,0.130827982,-0.163165194,0.0542695858,0.0605111495,0.0269997753,24.0554123,4.48361206,-44.3192444,2
3.75980562,0.0220494245,0.0120064941,0.0189372139,0.999505492,0.0231910871,0.0445465123,0.0373719903,0.227180899,-0.436707592,-9.79428736,0.138083816,0.0982285017,-0.0123632225,0.0419745706,0.0452453755,0.03666199,24.1036148,4.24262238,-44.2349854,2
3.76976263,0.0222247141,0.012138046,0.0191271297,0.99949641,0.0234394507,0.0449064673,0.0377424658,0.229609733,-0.440234013,-9.79407284,0.135355706,0.075418704,0.126734867,0.0284317527,0.00704090483,0.0387237333,23.9751663,4.3106842,-44.3867188,2
3.77972062,0.0223156254,0.012075474,0.0193074035,0.999491695,0.0233027497,0.0450901339,0.0381041747,0.228268986,-0.442033354,-9.79402316,0.0909073285,0.0528271522,0.210033913,0.00556052476,-0.0298223048,0.0333595946,23.9413376,4.30038452,-44.6291809,2
3.78967863,0.0222541999,0.0118778521,0.0194391991,0.999492864,0.0229035971,0.0449627682,0.0383782154,0.224360946,-0.440785582,-9.79416929,0.0490262803,0.0429003996,0.187734402,-0.0349018723,-0.0438928194,0.0194330905,23.766716,4.22711945,-44.5556641,2
3.79963662,0.0219730413,0.0116737404,0.0195172789,0.999499903,0.0225021646,0.0443943657,0.0385495409,0.220434822,-0.435217025,-9.79450773,0.0124005954,0.0650147624,0.115348965,-0.0792168751,-0.0315227024,0.013886258,23.8658752,4.2276535,-44.6177979,2
3.80959463,0.0214904512,0.011612718,0.0196088043,0.999509335,0.0223942211,0.0434288865,0.0387454576,0.219386884,-0.425758036,-9.7949467,0.0601355024,0.0809942026,-0.0232253928,-0.114868186,0.0124398647,0.0218583532,23.9597015,4.39538574,-44.4182129,2
3.81955263,0.0208671512,0.0117891555,0.0197768887,0.999517176,0.022763776,0.0421929757,0.0390873986,0.223018445,-0.413648971,-9.79538393,0.160502039,0.0724764765,-0.176765265,-0.134521782,0.0623051561,0.0449442342,23.9682999,4.32649994,-44.5689697,2
3.82951062,0.0202131816,0.0121593282,0.0200967059,0.999519763,0.0235163798,0.0409070818,0.0397262257,0.230402747,-0.401049565,-9.79573698,0.243798125,0.106414365,-0.240906021,-0.123259008,0.0916358978,0.0781455934,24.1202698,4.34540558,-44.8741455,2
3.83946863,0.0196890676,0.0126495346,0.020587804,0.999514114,0.0244980044,0.0398904325,0.0407010923,0.240028233,-0.391087778,-9.79590824,0.20514298,0.131767016,-0.27919162,-0.082402125,0.11123383,0.110759728,23.9931717,4.40700531,-44.7339783,2
3.84942662,0.0193928998,0.0131886627,0.02119391,0.999500348,0.0255646809,0.0393356021,0.0418997685,0.250482663,-0.385650994,-9.79586206,0.0971248148,0.0928114086,-0.273551568,-0.0362703167,0.109055117,0.12159986,24.1326599,4.37728882,-44.7092896,2
3.85938463,0.0192817296,0.0136729822,0.0217679947,0.999483699,0.0265158179,0.0391488149,0.0430324763,0.259801659,-0.383820673,-9.79569138,-0.0417803278,-0.013316322,-0.0711129331,-0.0141258668,0.087971136,0.101863973,24.0415955,4.41191864,-44.6656799,2
3.86934263,0.019187493,0.0140054056,0.0222154287,0.999470918,0.0271674579,0.0389868305,0.0439173705,0.266186556,-0.382233367,-9.79558208,-0.15276191,-0.160800328,0.214136672,-0.0264668036,0.0450930409,0.0741611645,24.0569458,4.41530609,-44.9087219,2
3.87930062,0.019021943,0.0140699971,0.0225187892,0.999466401,0.0272920619,0.0386668989,0.0445262516,0.267410435,-0.379098247,-9.79567034,-0.203066941,-0.210323068,0.407407081,-0.0404918119,-0.0117302928,0.0446251072,24.0418777,4.34487915,-44.3917236,2
3.88925863,0.0188236626,0.0138975529,0.0226737876,0.999469077,0.0269497306,0.0382668964,0.0448481479,0.264061125,-0.37517848,-9.79591233,-0.271244387,-0.211399721,0.353929173,-0.0383966602,-0.0546827801,0.0181017369,24.0413208,4.35571289,-44.5307922,2
3.89921663,0.0187118856,0.0135146339,0.022705069,0.999475759,0.0261873113,0.0380270177,0.0449281463,0.256594807,-0.372827789,-9.7962005,-0.211853821,-0.212104399,0.172706929,-0.00903584529,-0.0960121155,-0.00272498187,24.0044937,4.42080688,-44.6481323,2
3.90917463,0.0187817747,0.0129894837,0.0226604702,0.999482416,0.0251352394,0.0381420503,0.0448572083,0.246287275,-0.373955039,-9.79642204,-0.0830333255,-0.170425358,-0.00648702393,0.0346967652,-0.112829104,-0.00799259916,24.0829468,4.55284119,-44.748291,2
3.91913263,0.0190772886,0.0124526452,0.0226136468,0.999484658,0.0240499729,0.0387077791,0.0447773517,0.235650292,-0.379498864,-9.79647055,0.029955797,-0.109665257,-0.141411627,0.078208819,-0.101347953,-0.00267293467,23.9987259,4.42385101,-44.897583,2
3.92909062,0.0195343938,0.012040791,0.0226244914,0.999480643,0.0232054405,0.0396036825,0.0448051739,0.227368786,-0.388277945,-9.79632208,0.0413796928,-0.0711082935,-0.17313363,0.0964047909,-0.0653343797,0.0103768576,23.9987259,4.42385101,-44.897583,2
3.93904863,0.0199848612,0.011823914,0.0226780781,0.999473103,0.0227495434,0.0404960174,0.0449115646,0.222894673,-0.397021734,-9.79607425,0.00979114351,-0.00969206705,-0.0446931282,0.0780406967,-0.026979275,0.015254437,24.0532608,4.46037292,-44.8919373,2
3.94900663,0.0202473596,0.0117717366,0.0227677242,0.999466418,0.0226299049,0.0410206465,0.0450876494,0.221717939,-0.402162312,-9.79589129,0.00752619425,0.0152007109,0.134240713,0.0236558672,0.00339872553,0.0233848765,23.8655472,4.23773956,-44.8101501,2
3.95896463,0.0201954996,0.0118307886,0.0229037394,0.999463658,0.0227447834,0.0409226954,0.0453585667,0.222844166,-0.401202564,-9.79590532,-0.0233779164,0.0230695081,0.279252995,-0.044078704,0.0190892722,0.0299314614,23.9767075,4.28377533,-44.7587585,2
3.96892263,0.0198315331,0.01190618,0.0230626909,0.999466431,0.0229054259,0.0402019085,0.0456813184,0.224424367,-0.394139859,-9.79615608,-0.0536885365,-0.000303659122,0.339807709,-0.0990732461,0.013987706,0.0313847475,23.9662247,4.17980194,-44.8381348,2
3.97888062,0.0192513208,0.0119095754,0.0232010675,0.999474462,0.0229328174,0.0390449568,0.0459704128,0.224703019,-0.382802947,-9.79659915,-0.0885334572,-0.0454586692,0.240292857,-0.132850379,-0.006853926,0.0198111814,23.857254,4.14263153,-44.77005,2
3.98883863,0.0185631308,0.0117972696,0.0232394744,0.999487919,0.022737746,0.0376644792,0.0460661098,0.22280378,-0.369275028,-9.79716204,-0.185245417,-0.0880162467,0.0578489624,-0.143636152,-0.0292688999,-0.00670739636,23.8827133,4.36468506,-44.5931396,2
3.99879663,0.0178588871,0.0116028742,0.0231457039,0.999505217,0.0223841231,0.0362451504,0.0459003265,0.219350771,-0.355365672,-9.79775416,-0.246286198,-0.0892064063,-0.157485979,-0.140046209,-0.041841682,-0.0339083895,23.9771271,4.47061157,-44.6075745,2
4.00875462,0.0171969217,0.0113763934,0.0229194263,0.999524657,0.0219688327,0.0349060633,0.0454691396,0.215292089,-0.342242023,-9.79831121,-0.246267749,-0.0263141891,-0.360884984,-0.128482118,-0.0431683995,-0.0561595559,23.977562,4.37810516,-44.5731201,2
4.01871263,0.0165737917,0.0112028005,0.0226057578,0.999544269,0.021660015,0.0336453201,0.0448599902,0.212275371,-0.329885633,-9.79880104,-0.211527859,0.0307612682,-0.509134933,-0.125031993,-0.0203112867,-0.070061788,23.8025131,4.56134033,-44.614563,2
4.02867062,0.0159527841,0.0111663211,0.0222558359,0.999562755,0.0216258231,0.0323943146,0.0441734741,0.211949099,-0.317624153,-9.79921313,-0.158229856,0.111424741,-0.594165916,-0.121394455,0.0132157234,-0.0690329745,23.7984314,4.55360413,-44.5599976,2
4.03862863,0.0153706362,0.0113634428,0.0219637447,0.999576106,0.0220546012,0.0312324863,0.0435946035,0.216158752,-0.30623626,-9.79948376,-0.124132302,0.21346217,-0.729616589,-0.107121781,0.0730524212,-0.050112281,23.697319,4.48978424,-44.5544434,2
4.04858663,0.014905251,0.011863963,0.02181139,0.999580674,0.0230804242,0.0303201862,0.0432842197,0.226217534,-0.297293898,-9.79953169,-0.052189658,0.293254888,-0.818004482,-0.0729159862,0.128764823,-0.0172833018,23.693718,4.545784,-44.6173706,2
4.05854462,0.0146671561,0.0126274555,0.0218166645,0.999574647,0.0246176639,0.0298772574,0.0432771677,0.2412847,-0.292952215,-9.79930314,-0.039124991,0.298639668,-0.878237125,-0.0133285588,0.179457828,0.0133454455,23.8811264,4.54304504,-44.3862915,2
4.06850263,0.0147155762,0.0136154947,0.0219424715,0.999558239,0.0265882788,0.0300201749,0.0434981452,0.260593759,-0.294353131,-9.79876655,-0.100182942,0.210407678,-0.786148039,0.0399671532,0.211469576,0.0299459919,23.8050842,4.52991486,-44.4453125,2
4.07846062,0.014981958,0.0146881148,0.0220967978,0.999535675,0.0287178756,0.0306039006,0.043767422,0.281455583,-0.300074888,-9.79801603,-0.160399455,0.0985142781,-0.52248892,0.0726934075,0.211405396,0.0253160875,24.1132507,4.45812225,-44.2570496,2
4.08841863,0.0153504886,0.0157015552,0.0221977678,0.999512406,0.0307262722,0.0313882403,0.0439275919,0.301125986,-0.30776294,-9.79719302,-0.219723788,-0.0449316862,-0.176751821,0.081336394,0.188040107,0.00861582346,23.9444733,4.32007599,-44.1795654,2
4.09837663,0.0156945943,0.0165588545,0.0221878946,0.999493454,0.0324268722,0.0321136202,0.0438702248,0.317779344,-0.314872918,-9.79644074,-0.246552539,-0.166958924,0.202575998,0.0607629418,0.152985185,-0.0161286723,24.1564713,4.34860992,-44.0388489,2
4.10833462,0.0158874117,0.0172040035,0.0220463497,0.999482667,0.0337138991,0.0325226892,0.0435600369,0.330382988,-0.31888241,-9.79589421,-0.279806135,-0.213676616,0.50519467,0.0209892783,0.100753248,-0.0435828567,24.2406006,4.43400574,-43.8859253,2
4.11829275,0.0158595316,0.0175544711,0.0217677685,0.999483131,0.0344252865,0.0324726185,0.042992124,0.337352132,-0.318391631,-9.79567268,-0.287822743,-0.166133688,0.691720866,-0.0248205531,0.0398547389,-0.0695899576,24.4677429,4.37165833,-44.0593262,2
4.12825075,0.0156435796,0.017656583,0.0213907453,0.999492944,0.0346507099,0.0320321473,0.0422415977,0.339565096,-0.314074352,-9.79573581,-0.215965093,-0.127953961,0.686696316,-0.0536145382,0.00359296892,-0.0810529217,24.3186569,4.41239929,-43.9053955,2
4.13820875,0.0153826731,0.0176213799,0.0210227903,0.999505421,0.0346026191,0.0314962387,0.0415151663,0.33909978,-0.308821509,-9.79591876,-0.0410223307,-0.134703143,0.484269956,-0.0440521948,-0.0149128046,-0.0650052428,24.3687973,4.47201538,-44.1641846,2
4.14816675,0.0152377364,0.0175172622,0.0207499384,0.999515174,0.0344086989,0.0311927197,0.0409773045,0.337203372,-0.305846476,-9.79607775,0.0814819861,-0.131991929,0.261768191,-0.0114275087,-0.0260826647,-0.0448768847,24.2991562,4.55717468,-44.0913391,2
4.15812475,0.0152796304,0.01736607,0.0205799575,0.99952067,0.0341098636,0.0312644918,0.0406405334,0.334275209,-0.306549984,-9.79615608,0.126907228,-0.0822073047,0.145278824,0.026600834,-0.0342737474,-0.0231188573,24.3756561,4.40357971,-44.0577087,2
4.16808275,0.0154975233,0.0172075411,0.0204967979,0.999521739,0.033786713,0.0316909263,0.0404720054,0.331105091,-0.310729791,-9.79613211,0.0970073989,-0.027898901,0.0750748225,0.0574207529,-0.0293421894,-0.00693254825,24.4072342,4.51737213,-43.9620972,2
4.17804075,0.0158332972,0.017078142,0.0204927346,0.999518763,0.0335147251,0.0323569569,0.0404571457,0.328433644,-0.317257987,-9.79601287,0.0672074866,0.00227207312,0.11431027,0.0714785159,-0.027464129,0.00649271253,24.3078766,4.5618515,-43.7629089,2
4.18799875,0.0161570697,0.0169280754,0.0205260531,0.999515466,0.0332006359,0.032999404,0.040518338,0.325349962,-0.323554859,-9.79590941,0.029290465,-0.0250995161,0.226883925,0.0534012802,-0.035127867,0.00801588967,24.1287918,4.62464905,-44.0322571,2
4.19795675,0.0163534912,0.0167346005,0.0205271113,0.999515479,0.0328057649,0.033384362,0.0405206526,0.321477724,-0.327327947,-9.79591233,-0.0937299847,-0.0714550245,0.317118323,0.0217309706,-0.0436036438,-0.0066227084,24.2747192,4.44224548,-44.0570374,2
4.20791475,0.0163676439,0.0164795647,0.0204333208,0.999521434,0.0322980905,0.0333992954,0.0403410542,0.316504392,-0.327474297,-9.79606898,-0.182429757,-0.0744510645,0.357377852,-0.0174681339,-0.0638559461,-0.0282327775,24.2292175,4.4937973,-44.0140381,2
4.21787275,0.0162225495,0.0160482028,0.0202412952,0.999534713,0.0314471312,0.0330857115,0.0399755872,0.308171448,-0.324400808,-9.79643723,-0.122920752,-0.0811159293,0.304924027,-0.0388953947,-0.10986045,-0.0451342613,24.2039719,4.60821533,-44.0257874,2
4.22783075,0.0160751199,0.0154586122,0.0199884681,0.999551427,0.0302815946,0.0327596653,0.039493456,0.296756302,-0.321205117,-9.79689491,-0.026960378,-0.0745851758,0.00401157373,-0.0172469411,-0.121017888,-0.051838845,24.1331711,4.66616058,-44.1402893,2
4.23778875,0.0161188002,0.0148976716,0.0197316422,0.999564431,0.0291661014,0.03281736,0.0389967056,0.285827222,-0.321770606,-9.7972012,0.0393346334,-0.0211976133,-0.351071446,0.032040447,-0.104644239,-0.0461665764,24.0374908,4.60842896,-44.1106567,2
4.24774675,0.0163889701,0.0144331843,0.0195138858,0.999571112,0.0282337961,0.0333333497,0.0385689245,0.276688387,-0.326827962,-9.7972959,0.11596001,0.0775329562,-0.504205075,0.0711065456,-0.0841497183,-0.0360505246,24.0008698,4.52864075,-44.0613098,2
4.25770475,0.0167609238,0.0141080702,0.0193546558,0.999572668,0.0275747645,0.0340602214,0.0382513488,0.270224981,-0.333952078,-9.79723627,0.149507822,0.136730959,-0.457578348,0.0728035122,-0.0466990098,-0.0223056823,23.8883133,4.45704651,-44.1400452,2
4.26766275,0.0170685208,0.0140197504,0.0192807351,0.999570159,0.0273891425,0.0346699355,0.0380984074,0.268400761,-0.339927828,-9.79708079,0.168241091,0.134476604,-0.343859615,0.048131533,0.00917418953,-0.00300339679,23.9316025,4.39750671,-44.1689148,2
4.27762075,0.0172089892,0.0141732292,0.0193236585,0.999564734,0.0276894922,0.0349578742,0.0381752711,0.271340578,-0.342749827,-9.79690134,0.139114694,0.120988067,-0.180335524,0.00798171666,0.0479380973,0.0180976279,23.8772659,4.56809998,-44.2965088,2
4.28757875,0.0171394446,0.0144330008,0.0194511752,0.999559762,0.0282073774,0.0348323192,0.0384232318,0.276415433,-0.341519299,-9.79680256,0.0542829953,0.124545942,-0.00580722497,-0.0329806283,0.054217577,0.0294759832,23.8772659,4.56809998,-44.2965088,2
4.29753675,0.0169222972,0.0146538584,0.0195971878,0.999557347,0.0286523647,0.0344107524,0.0387136543,0.280778944,-0.337387606,-9.79682185,0.00173617614,0.0885414762,0.015460604,-0.0498102084,0.0400700681,0.0254048109,23.9388962,4.51631927,-44.2693787,2
4.30749475,0.016709218,0.014857712,0.0197019335,0.999555869,0.0290647016,0.0339955928,0.038922155,0.284822557,-0.333318676,-9.79684406,-0.107801966,0.00651135466,-0.174406719,-0.0321324877,0.0467465185,0.0157567468,23.8304749,4.51964569,-44.2819214,2
4.31745275,0.0166426523,0.015126199,0.0197632984,0.999551802,0.0296023149,0.0338747515,0.0390377053,0.290090633,-0.332134288,-9.79673008,-0.138209123,-0.0802657422,-0.358126625,0.00703195669,0.0605914928,0.00645166263,23.8720627,4.55509949,-44.2297363,2
4.32741075,0.0167589177,0.0154327785,0.0197796531,0.999544861,0.0302107135,0.0341197098,0.0390566828,0.296048427,-0.334535139,-9.79646997,-0.131597377,-0.132183342,-0.353448696,0.0397940129,0.0591439083,-0.00067594531,23.9817123,4.5151062,-44.0491028,2
4.33736875,0.0169989854,0.0156874683,0.0197623243,0.99953711,0.0307117508,0.0346091839,0.0390062539,0.300951726,-0.33933242,-9.79615549,-0.0883173668,-0.111524475,-0.180033327,0.0547143705,0.0383512788,-0.00512821786,24.1396103,4.52127838,-44.0623169,2
4.34732675,0.0172327943,0.0158244878,0.0197233352,0.999531772,0.0309783919,0.0350808692,0.0389165607,0.303558767,-0.343955257,-9.79591409,-0.00877336304,-0.106153486,0.00557458526,0.0408916175,0.0192650538,-0.00837000832,24.0299911,4.48226166,-44.0659485,2
4.35728475,0.0173808829,0.0159343063,0.0196816324,0.999528252,0.0311939872,0.035379974,0.0388248345,0.305667502,-0.346886634,-9.79574516,-0.00938570452,-0.130156841,0.10087445,0.0204103086,0.024216136,-0.00652523665,24.1727753,4.52319336,-44.1411133,2
4.36724275,0.0174120168,0.0160181067,0.0196509217,0.999526971,0.0313615704,0.035444523,0.0387594798,0.307308401,-0.34751927,-9.79567151,-0.0880899695,-0.0925637539,0.177714528,-0.00801349524,0.00583804771,-0.0061648353,24.2023544,4.45108032,-44.0767822,2
4.37720075,0.0173163254,0.0159777885,0.0195912614,0.999530466,0.0312866117,0.0352497391,0.0386443901,0.306576215,-0.345610258,-9.79576153,-0.118781716,-0.0388075408,0.205188226,-0.028223956,-0.023291342,-0.0155548751,24.3516846,4.5188446,-44.0823669,2
4.38715875,0.0171522633,0.0157863015,0.0195101838,0.999537904,0.0309124825,0.0349117534,0.0384937511,0.302914916,-0.342297809,-9.79599183,-0.0593055727,-0.0316453575,0.135837042,-0.0355020352,-0.0522400998,-0.0164481364,24.2254028,4.50080872,-44.1848145,2
4.39711675,0.0169906243,0.0155202943,0.0194297105,0.999546392,0.0303891,0.0345758328,0.0383467059,0.297791307,-0.339005526,-9.79626363,-0.00465191746,-0.0723470049,-0.0452519311,-0.0279186852,-0.0494349934,-0.0154758161,24.1254501,4.5199585,-44.3338318,2
4.40707475,0.0169060793,0.0153511622,0.0193541253,0.999551932,0.0300564655,0.0343980081,0.0382037374,0.294534516,-0.337262701,-9.79642204,-0.0371585497,-0.117335098,-0.207300104,-0.00791415572,-0.0181873664,-0.0142448638,24.0441132,4.58033752,-44.4547729,2
4.41703275,0.0169071447,0.015320294,0.0192812292,0.999553786,0.0299971742,0.0343967715,0.0380589004,0.293953702,-0.337250572,-9.79644016,-0.0576766015,-0.101485677,-0.227034732,0.00651138835,0.00321326358,-0.0144259594,23.977272,4.59636688,-44.3683167,2
4.42699075,0.0169589055,0.0153406563,0.0192257321,0.999553663,0.0300379118,0.034499386,0.0379456599,0.294351743,-0.338256278,-9.79639339,-0.0434101392,-0.0424205802,-0.129068863,0.0132639054,0.00151846791,-0.00687780092,24.0785751,4.51824188,-44.3426514,2
4.43694875,0.0170687655,0.0153415427,0.01921895,0.999551903,0.030035863,0.0347189053,0.0379288991,0.294329422,-0.340407757,-9.79631974,-0.00328495822,-0.00839632815,-0.0802110163,0.0307219904,-0.000591022079,0.00459562987,24.1160507,4.63837433,-44.2033081,2
4.44690675,0.0172976035,0.0153664175,0.0192629048,0.999546797,0.0300756417,0.0351787874,0.0380094077,0.294714366,-0.344914896,-9.79615023,-0.0121992458,-0.0395029026,-0.126319272,0.0610803515,0.00882904418,0.0127531961,23.9835052,4.55305481,-44.1076965,2
4.45686475,0.0176614314,0.0153897937,0.0193177036,0.999539004,0.0301069954,0.0359088867,0.038107768,0.29501386,-0.352070211,-9.79588661,-0.049309609,-0.0479098618,-0.0831874018,0.0816085339,-0.00403002929,0.00946472399,24.069725,4.65701294,-44.4192505,2
4.46682275,0.0180696877,0.015311896,0.0193121993,0.999532937,0.0299362086,0.0367221617,0.0380878765,0.293332173,-0.360040459,-9.79564754,-0.0883293312,-0.0532574333,0.0400239674,0.0795315281,-0.029767096,-0.0084708659,24.0513992,4.5616684,-44.2853699,2
4.47678075,0.0184373703,0.0151847893,0.0192126312,0.999530153,0.0296720042,0.0374496478,0.0378828891,0.290736274,-0.367169763,-9.7954605,-0.122095371,-0.10418752,0.119444126,0.0648947954,-0.0214646906,-0.0296376683,24.1564026,4.45058441,-44.157959,2
4.48673875,0.0187106735,0.0151650492,0.0190257399,0.999528918,0.0296295522,0.0379899083,0.0375019001,0.290314505,-0.372464143,-9.79527287,-0.123918166,-0.184186574,0.121201783,0.0412782691,0.009762601,-0.0431328975,24.1103516,4.61496735,-44.3723145,2
4.49669675,0.0188300968,0.0152547312,0.0187786095,0.999530003,0.0298141088,0.0382247266,0.0370005348,0.292119673,-0.374765223,-9.79513141,-0.115847252,-0.173954664,0.195430218,0.00473517133,0.0217987597,-0.0563293919,24.1439209,4.60440826,-44.4785156,2
4.50665475,0.0187535373,0.0153553277,0.0184829344,0.999535412,0.0300294111,0.0380664651,0.0364071729,0.294230363,-0.37321434,-9.79512732,-0.0661833495,-0.108767139,0.275931741,-0.0331292748,0.0158107132,-0.062025547,24.1330032,4.67075348,-44.3964233,2
4.51661275,0.0185275279,0.0153937498,0.0181852661,0.999544518,0.030125474,0.0376069207,0.0358165259,0.295176449,-0.368711001,-9.79526936,0.0124777888,-0.0354589975,0.292982245,-0.0552926324,-0.00364767248,-0.0583301447,24.187355,4.6362381,-44.475647,2
4.52657075,0.018214462,0.0153095657,0.0179163172,0.999556429,0.0299778483,0.0369697682,0.0352904629,0.293737392,-0.362466992,-9.79554584,0.0701805842,0.0154585947,0.212155142,-0.0671342164,-0.0289600138,-0.0489878543,23.9940033,4.66120148,-44.4596863,2
4.53652875,0.0178699884,0.0151310084,0.0176953973,0.999569225,0.0296403766,0.0362680298,0.0348647529,0.290439118,-0.35558991,-9.79589655,0.103705654,0.0676883655,0.0945914238,-0.070229888,-0.037918888,-0.0417270139,23.9496841,4.49034119,-44.5862427,2
4.54648675,0.0175302491,0.0149482538,0.0175193644,0.999581173,0.029292471,0.0355770863,0.0345286664,0.287038187,-0.348818443,-9.79624025,0.131946428,0.102815428,-0.0250742355,-0.067896761,-0.0335604399,-0.0281187538,24.0064163,4.8021698,-44.6265869,2
4.55644475,0.017201485,0.0147966717,0.0174226161,0.999590736,0.0290035791,0.0349115749,0.0343496029,0.284214782,-0.342296055,-9.79655238,0.171131771,0.105121659,-0.0967377882,-0.0630705804,-0.0279563479,-0.0133211669,23.9726257,4.71523285,-44.5134583,2
4.56640275,0.0169292075,0.0146764928,0.0174024553,0.999597557,0.0287729062,0.0343623649,0.034320975,0.281960336,-0.336913376,-9.79680431,0.196131114,0.0998886169,-0.143172792,-0.0454796776,-0.0172766056,0.00468050968,23.9532318,4.76049805,-44.2655945,2
4.57636075,0.0167890061,0.0146079275,0.0174422734,0.999600229,0.0286390415,0.0340807767,0.0344068599,0.280651591,-0.334153556,-9.79693642,0.154344229,0.0986251729,-0.264546424,-0.0103398021,-0.00891374703,0.00961481407,24.0850754,4.73697662,-44.4187012,2
4.58631875,0.0168231008,0.0145674802,0.0174851457,0.999599519,0.0285555102,0.0341487926,0.0344930914,0.279832603,-0.334820166,-9.796937,0.071066902,0.141040675,-0.33382805,0.0225639325,-0.0090822326,0.00696104905,24.2054825,4.89872742,-44.3773193,2
4.59627675,0.0170128915,0.0144999752,0.0175210968,0.999596649,0.0284128386,0.0345270293,0.0345621617,0.27843123,-0.338527204,-9.79684932,0.036854507,0.209690433,-0.348131301,0.0511140823,-0.0188320652,0.00877279788,24.2505798,4.82816315,-44.3798218,2
4.60623475,0.0173028344,0.0143747597,0.0175688399,0.999592692,0.0281508868,0.0351038786,0.0346542009,0.27585937,-0.344180736,-9.7967254,0.0714488323,0.192599049,-0.331795083,0.0635180622,-0.032942798,0.0150334705,24.2668152,4.82993317,-44.32901,2
4.61619275,0.017632524,0.0141938425,0.01766541,0.999587805,0.027774337,0.0357596127,0.0348450333,0.272164078,-0.350607262,-9.7966009,0.156546981,0.154882482,-0.323090967,0.0661788285,-0.037981499,0.0265215486,24.2939377,4.80633545,-44.4203186,2
4.62615075,0.0179489689,0.0140656773,0.0178191621,0.999581204,0.0275015758,0.0363922135,0.0351489754,0.26948578,-0.356806921,-9.79645068,0.197083556,0.14342494,-0.328926834,0.0563595966,-0.0121005122,0.040143691,24.1129913,4.79218292,-44.213623,2
4.63610875,0.0181996335,0.0141250434,0.0180565201,0.999571592,0.0276030351,0.0369021463,0.0356151986,0.270474663,-0.361804291,-9.79624025,0.184123683,0.130465761,-0.346495808,0.0425463133,0.0372049846,0.0552249104,24.1129913,4.79218292,-44.213623,2
4.64606675,0.018377517,0.0144305533,0.0183615546,0.99955842,0.0281968051,0.0372773714,0.0362095597,0.276287478,-0.365481481,-9.79594156,0.160803287,0.0774302996,-0.312677125,0.0266367458,0.087136507,0.0660473928,24.1050339,4.75817871,-44.3517456,2
4.65602475,0.0184592047,0.0149582457,0.0186943044,0.999542961,0.0292373385,0.0374695713,0.0368534895,0.28647827,-0.367364993,-9.79557857,0.0861186877,-0.00433360876,-0.180311559,0.00522919139,0.123182125,0.0635117963,24.1321945,4.64089966,-44.2524109,2
4.66598275,0.0184159969,0.0156075932,0.0189991361,0.999528132,0.0305267847,0.0374164054,0.0374404288,0.299109496,-0.366843965,-9.79522026,0.0300925569,-0.0916444471,-0.000506195956,-0.0183279179,0.139839813,0.0532122068,24.1681442,4.65234375,-43.9587402,2
4.67594075,0.0182609752,0.0162936851,0.0192475631,0.999515254,0.0318960151,0.0371400117,0.0379166147,0.312524346,-0.364135364,-9.79490286,0.0252070316,-0.217654434,0.153303141,-0.0389873907,0.133397087,0.0426610298,24.4351349,4.6541748,-44.2713318,2
4.68589875,0.0180413657,0.0168597527,0.0194319121,0.999506271,0.0330299779,0.0367284079,0.0382714365,0.323636144,-0.360101651,-9.79469068,-0.0275040199,-0.29785365,0.268312499,-0.0429035686,0.0948483646,0.0262306556,24.4712982,4.70079041,-44.2660217,2
4.69585675,0.0178468493,0.0172088787,0.0195257875,0.999501993,0.0337323526,0.0363559651,0.0384527575,0.330520094,-0.356451677,-9.79459482,-0.114294451,-0.270827915,0.292906257,-0.0315696858,0.0485011004,0.00893955026,24.5476532,4.64059448,-44.2699585,2
