Time (s),Quaternion X,Quaternion Y,Quaternion Z,Quaternion W,Roll (rad),Pitch (rad),Yaw (rad),Gravity X (m/s^2),Gravity Y (m/s^2),Gravity Z (m/s^2),User Acceleration X (m/s^2),User Acceleration Y (m/s^2),User Acceleration Z (m/s^2),Rotation Rate X (rad/s),Rotation Rate Y (rad/s),Rotation Rate Z (rad/s),Magnetic Field X (µT),Magnetic Field Y (µT),Magnetic Field Z (µT),Magnetic Accuracy
0.0166795833,0.045453622,0.00945310481,-2.4683943E-17,0.998921642,0.018965313,0.0909344857,-0.000862921136,0.185206638,-0.89053415,-9.76437562,-0.0366168806,-0.0176146402,-0.0463145919,-0.0492160022,-0.103940979,0.00843143649,-2.53853607,19.72789,-46.266571,2
0.0266375833,0.0450423342,0.00890125161,2.49243202E-05,0.998945403,0.0178548716,0.0901120138,-0.000755134138,0.17437678,-0.882501504,-9.76530443,-0.0343163668,0.0360034797,0.00878302591,-0.114519201,-0.117534682,0.00941045955,-2.59349823,19.5834198,-46.2545471,2
0.0365955833,0.0443978665,0.00822520467,6.81156662E-05,0.998980106,0.0164933477,0.0888230406,-0.000596622712,0.161099567,-0.869911561,-9.76666169,0.0314836824,0.173499906,-0.0895183584,-0.13787432,-0.15210171,0.0176699869,-2.63010406,19.6058502,-46.2642517,2
0.0465525833,0.0437718025,0.00744165639,0.000150112992,0.999013787,0.0149131901,0.0875713868,-0.000352891792,0.145682619,-0.857684751,-9.76798563,0.0088926329,0.317494755,-0.235737678,-0.103397079,-0.152000338,0.0260981154,-2.68945312,19.5484619,-46.307312,2
0.0565105833,0.0434752956,0.00683677641,0.00026588223,0.999031013,0.0136893611,0.0869796046,-6.3452436E-05,0.133735101,-0.851903391,-9.76866192,-0.0728329801,0.366780106,-0.449491488,-0.0111553036,-0.0970169827,0.0279910881,-2.72618103,19.6228485,-46.3638,2
0.0664675833,0.0437034665,0.00638641231,0.000315914342,0.999024087,0.0127819223,0.0874370368,7.32752867E-05,0.124865584,-0.85637228,-9.76838895,-0.184122459,0.341022199,-0.536703907,0.104641296,-0.0815038159,-0.000725620892,-2.76655579,19.6530914,-46.2043762,2
0.0764255833,0.0444666491,0.00607725253,0.00024763069,0.998992388,0.0121686578,0.0889640037,-4.58892402E-05,0.11885891,-0.871288475,-9.7671445,-0.328501558,0.22799817,-0.401029947,0.195825532,-0.0386013612,-0.0157146901,-2.75204468,19.5548859,-46.193573,2
0.0863825833,0.0455159053,0.00600012767,0.000171461098,0.998945553,0.0120220944,0.0910636867,-0.00020448917,0.117405149,-0.891795987,-9.76531086,-0.115310615,0.233093009,-0.264299171,0.218271092,0.00392697891,-0.0076488629,-2.87992096,19.5240326,-46.2876282,2
0.0963405833,0.0465276188,0.00608652099,0.000161539618,0.998898448,0.0121977138,0.0930890859,-0.000244718863,0.119097851,-0.911574235,-9.76346435,0.079321237,0.153511961,0.053779521,0.183600992,0.0273907594,0.00463976106,-2.80747223,19.4065094,-46.4347839,2
0.106297583,0.047284345,0.00624708395,0.000223449028,0.998861943,0.0125151067,0.0946049146,-0.000145037653,0.122179259,-0.926373964,-9.76203286,0.174402079,0.0257070535,0.300297536,0.121812738,0.0410543717,0.0202576034,-2.8644104,19.325943,-46.3558044,2
0.116255583,0.0477336443,0.00629734957,0.000368692732,0.998840128,0.0126026585,0.095506329,0.000135958904,0.123023372,-0.935173941,-9.76118355,0.247927846,-0.0573704581,0.368131302,0.0589168593,-0.0267584957,0.0351228341,-2.93212891,19.1618958,-46.4511108,2
0.126212583,0.0478986137,0.00601891985,0.000549155513,0.998833871,0.0120266737,0.0958387731,0.00052283374,0.117397313,-0.938419206,-9.76094097,0.251758291,-0.10754589,0.501066777,0.00907020736,-0.0755916312,0.0456536412,-2.94291687,19.1379089,-46.4020691,2
0.136170583,0.0478298056,0.00561601957,0.000801749862,0.998839417,0.0111937648,0.0957036232,0.00106930593,0.109268714,-0.937099868,-9.76116251,0.217838723,-0.0882151668,0.412552627,-0.0375116765,-0.075289093,0.0628467426,-2.93054199,19.1026001,-46.4150391,2
0.146128583,0.0475755576,0.0052351893,0.00111581778,0.998853247,0.0103994742,0.0951974068,0.0017388163,0.101520401,-0.932158173,-9.76171897,0.163038499,-0.0651746291,0.297290171,-0.0622931905,-0.0714894831,0.0664389431,-2.87213898,19.2727814,-46.493103,2
0.156085583,0.0472440795,0.00483710542,0.00140462372,0.998870643,0.0095734577,0.0945357851,0.00235956367,0.093462913,-0.92569906,-9.76241397,0.0017062194,-0.0997656116,0.165406251,-0.0698328614,-0.0854242072,0.0533178188,-2.93412781,19.2358856,-46.5170898,2
0.166043583,0.0469024223,0.00436686263,0.00161714692,0.998888631,0.00861032181,0.0938524356,0.0028335404,0.0840657646,-0.919027401,-9.76313001,-0.120727334,-0.0721702601,0.100132107,-0.0668458119,-0.0951242819,0.0412173197,-2.94931793,19.3414154,-46.3985291,2
0.176000583,0.0465830405,0.00386758829,0.00177044724,0.998905311,0.00759480631,0.0932127106,0.00319054632,0.0741555659,-0.912781273,-9.76379636,-0.146580527,0.00912168328,0.0451332732,-0.0627927482,-0.100948088,0.0294626635,-3.07145691,19.3224945,-46.236145,2
0.185958583,0.046273651,0.00339787916,0.00188146821,0.9989212,0.00664280618,0.0925924961,0.00345923735,0.0648641475,-0.906725261,-9.76442648,-0.151355057,0.0686068686,0.030949265,-0.0624958985,-0.0814893171,0.0245828647,-3.13511658,19.262619,-46.2713928,2
0.195915583,0.0459661268,0.0030500071,0.00200878955,0.998936343,0.00593396995,0.0919763493,0.00374876593,0.0579460569,-0.900708631,-9.76502678,-0.113761258,0.0765065358,-0.00376490549,-0.0612878911,-0.0580772012,0.0337153785,-3.05226898,19.3562317,-46.3484497,2
0.205873583,0.0456724173,0.00277011836,0.00219340763,0.99895019,0.00535644201,0.0913882484,0.00414648908,0.0523092977,-0.894965557,-9.76558675,-0.0434810581,0.0867746857,-0.0238549228,-0.0567727238,-0.0515362807,0.0439655967,-3.04877472,19.4118652,-46.125061,2
0.215830583,0.0453989353,0.00252410487,0.00241664484,0.998962776,0.00484353709,0.0908407782,0.00461815097,0.0473028403,-0.889619008,-9.76610055,-0.0312919638,0.0850193664,-0.0160088855,-0.0558174476,-0.0410484858,0.0493129566,-3.04447174,19.3789215,-46.1387634,2
0.225788583,0.0450901353,0.0023366934,0.00267023848,0.998976658,0.00444589897,0.0902228194,0.00514523812,0.0434218981,-0.883583747,-9.76666695,-0.0510537767,0.0942471404,-0.0115524906,-0.0695301443,-0.0306110308,0.0554043166,-3.04112244,19.315506,-46.1755676,2
0.235745583,0.0447087643,0.00220067501,0.00294596773,0.99899325,0.00415010534,0.0894597512,0.00571209764,0.0405357665,-0.876130727,-9.76735026,-0.0827339224,0.0882906432,0.0175631292,-0.0829546079,-0.0184257366,0.0559201688,-3.15299225,19.4875183,-46.2166748,2
0.245703583,0.0443001949,0.00210573998,0.00320254472,0.999010883,0.00393904304,0.0886422794,0.00623671125,0.038477053,-0.868145866,-9.76807156,-0.066908563,0.0714770902,-0.065662851,-0.0755765438,-0.0169540811,0.0456928089,-3.25547028,19.3562775,-46.2485046,2
0.255661583,0.0439892404,0.00196344393,0.00337652247,0.999024295,0.00364009467,0.0880195092,0.00659931023,0.035558864,-0.862062381,-9.76862159,-0.101399752,0.0561160742,-0.225075414,-0.0458250456,-0.0411209352,0.0229984168,-3.17900085,19.58358,-46.0147095,2
0.265618583,0.0438695115,0.00168323176,0.00342943048,0.999029918,0.00307414325,0.0877781324,0.00673048537,0.0300309332,-0.85970442,-9.7688478,-0.140014912,0.0759044782,-0.323460385,-0.00323763653,-0.0690142736,0.0033574719,-3.055336,19.3758774,-46.1019287,2
0.275576583,0.0439526522,0.00133269051,0.00340633901,0.999026857,0.00237252259,0.0879421501,0.0067148972,0.0231765646,-0.861306668,-9.76872564,-0.131065645,0.101897728,-0.323432913,0.0338692516,-0.06821879,-0.0060080667,-3.09432983,19.5275497,-46.1529236,2
0.28553325,0.0441708731,0.00102874954,0.00335918102,0.999017849,0.00176561396,0.0883768921,0.00664687154,0.0172471746,-0.865553511,-9.76836265,-0.103139499,0.0878886383,-0.259452316,0.0484921373,-0.0530034266,-0.00837788172,-3.03975677,19.3255539,-46.2258911,2
0.29549125,0.0443652556,0.000803956119,0.00332153787,0.999009486,0.00131678235,0.0887644817,0.00659115704,0.0128623813,-0.869339533,-9.76803298,-0.105488428,0.0397504842,-0.0839572171,0.0273607541,-0.0373757333,-0.00264542713,-3.12528229,19.3657913,-46.2937317,2
0.30544825,0.0444140265,0.000617478983,0.00330600761,0.999007512,0.000943789958,0.0888608735,0.00657659881,0.00921889886,-0.870281124,-9.76795348,-0.0988521866,-0.00569558129,0.11752514,-0.00831907988,-0.0397988036,-0.00214681774,-3.25360107,19.4647293,-46.2486877,2
0.31540625,0.0442881598,0.000376173645,0.00326046499,0.999013429,0.000464627836,0.0886072867,0.00650674863,0.00453856731,-0.867804067,-9.76817677,-0.0461381942,0.0178642311,0.214563957,-0.0419185869,-0.0564334393,-0.0116729448,-3.25360107,19.4647293,-46.2486877,2
0.32536325,0.0440021202,0.000103678504,0.00316710089,0.999026447,-7.18413712E-05,0.0880328823,0.00634351791,-0.000701795019,-0.862193022,-9.76867478,-0.0470329739,0.0282644098,0.248281518,-0.0716023073,-0.0502164289,-0.0216265749,-3.16832733,19.5492477,-46.1958923,2
0.33532125,0.0436079673,-9.42227823E-05,0.00301947623,0.999044086,-0.000453336023,0.0872426239,0.00606449915,-0.00442879963,-0.854472949,-9.76935224,-0.107350861,-0.00893412482,0.148402509,-0.0841718987,-0.0352662429,-0.0343636759,-3.24274445,19.6405869,-46.2720337,2
0.34527925,0.0431961095,-0.000289568977,0.00282288322,0.999062487,-0.000825550899,0.0864171094,0.00568674135,-0.00806567713,-0.846407935,-9.77005192,-0.200080582,-0.0888252615,-0.0241781634,-0.0827563405,-0.0494426712,-0.0383721739,-3.18971252,19.6057816,-46.2136841,2
0.35523625,0.0427615581,-0.00057109948,0.00264933617,0.999081627,-0.0013727498,0.0855458486,0.00536228288,-0.0134128446,-0.837895324,-9.77077965,-0.15433126,-0.0738447692,-0.053527592,-0.0943714529,-0.0636551604,-0.0265996736,-3.28462219,19.6459274,-46.110321,2
0.36519425,0.0422791153,-0.000878141475,0.0025340095,0.999102235,-0.00197604251,0.0845786703,0.00515617747,-0.0193090733,-0.828444847,-9.77157576,-0.081995927,-0.0271811447,-0.050187634,-0.0977542922,-0.060548082,-0.0154678812,-2.99871826,19.7648087,-46.0443115,2
0.37515125,0.0418152147,-0.00115582605,0.00244378333,0.999121656,-0.00252282009,0.08364884,0.00499743028,-0.0246538821,-0.8193586,-9.7723298,-0.053457285,0.0454346673,-0.0561672929,-0.0858206674,-0.0471497178,-0.0163794812,-3.09238434,19.8038101,-45.9534607,2
0.38510925,0.0414664256,-0.0013340707,0.00232053341,0.999136301,-0.00286815112,0.0829501241,0.0047640954,-0.0280302038,-0.812530289,-9.77289094,-0.0532233621,0.0820013338,-0.153918058,-0.0544374399,-0.0223431699,-0.0303064827,-3.14035797,19.716774,-46.1063843,2
0.39506625,0.041296098,-0.00133623634,0.00214185177,0.999143778,-0.00285683105,0.0826096824,0.00440543622,-0.0279203639,-0.809203117,-9.77316683,-0.0569245319,0.0869042303,-0.229059516,-0.0151558155,0.0217023175,-0.0390437804,-3.19359589,19.7833023,-46.0097656,2
0.40502425,0.0412711741,-0.00113327187,0.00197541119,0.999145359,-0.00243596158,0.0825610887,0.00405481147,-0.0238072295,-0.808728193,-9.7732171,-0.0399387413,0.0579981616,-0.236491127,0.00103931269,0.0532384776,-0.0310651734,-3.29208374,19.9982224,-46.0443115,2
0.41498125,0.0412470469,-0.00086115504,0.00188313786,0.999146886,-0.00188259487,0.0825140755,0.00384720187,-0.0183991245,-0.808268759,-9.77326679,-0.00060520506,-0.0494521593,-0.171647776,-0.0167330261,0.0536334254,-0.0100879865,-3.31369019,19.8326797,-46.0066223,2
0.42493925,0.0410376326,-0.000608888218,0.00190035056,0.999155582,-0.00137735924,0.0820958313,0.00386047793,-0.0134617834,-0.804181051,-9.77361224,0.0181001895,-0.179235527,-0.0131359604,-0.071059078,0.0509664491,0.0153501071,-3.19551086,19.896019,-45.7788086,2
0.43489625,0.0405078155,-0.000352066107,0.00205400034,0.999176969,-0.000872823222,0.0810361695,0.00414676252,-0.00853138182,-0.793823835,-9.77446447,0.0715284368,-0.217425265,0.18643501,-0.143708244,0.0527086891,0.0410807692,-3.29951477,19.9262466,-46.0811462,2
0.44485425,0.0396323815,-0.00012245259,0.00228378586,0.999211722,-0.000427077501,0.0792847598,0.00458810645,-0.00417504264,-0.776703554,-9.77584277,0.0908148462,-0.187559411,0.269814135,-0.204443276,0.0418272503,0.0453993753,-3.15688324,19.8872452,-45.9975586,2
0.45481225,0.0385593967,1.79344853E-05,0.00248477772,0.999253134,-0.000156245497,0.0771377603,0.0049792879,-0.00152768849,-0.755713081,-9.7774882,0.0904120467,-0.0927303061,0.217740834,-0.219780684,0.0197770745,0.0308875442,-3.13873291,20.0189438,-46.0860291,2
0.46476925,0.037521919,9.01808644E-05,0.00256655957,0.999292452,-1.24052969E-05,0.0750616701,0.00513720759,-0.000121311847,-0.735412489,-9.7790366,0.0719470139,0.0455849625,0.0147340433,-0.191684827,0.0108110402,0.000249185134,-3.08140564,20.0606155,-46.0675049,2
0.47472725,0.0367017814,0.000115994543,0.00249052023,0.999323075,4.91514048E-05,0.0734203969,0.00498259828,0.000480712065,-0.719361445,-9.7802302,-0.0129009975,0.114976917,-0.168725166,-0.135846853,-0.0025503058,-0.0314333774,-3.20948792,20.1918869,-46.2409668,2
0.48468425,0.0361601723,4.8649951E-05,0.00227897515,0.999343305,-6.77574562E-05,0.0723361408,0.00456338833,-0.000662736013,-0.708756757,-9.78100469,-0.0400390553,0.135347213,-0.185458859,-0.0835539177,-0.0257295221,-0.0510837324,-3.16326141,20.2082443,-46.0528259,2
0.49464225,0.0358364321,-0.000116594611,0.00198579071,0.999355733,-0.000376332898,0.0716876107,0.00398763194,-0.00368108597,-0.702413306,-9.7814612,-0.0373199828,0.132744775,-0.158515907,-0.0471943095,-0.0464976504,-0.0619190708,-3.22537231,20.3989334,-45.99646,2
0.50459925,0.0356847901,-0.000392475063,0.00166333707,0.999361587,-0.000905466754,0.0713833191,0.00336112725,-0.00885698049,-0.699436847,-9.78167104,-0.034388642,0.0901143515,-0.118652098,-0.0116783455,-0.0638038367,-0.062035203,-3.14636993,20.4316635,-45.7590942,2
0.51455725,0.0357046088,-0.000654235173,0.00135682326,0.99936127,-0.00140811474,0.0714225388,0.00276568631,-0.0137736784,-0.699820513,-9.78163831,-0.0134607354,0.101870402,-0.10132687,0.0184800886,-0.0368097723,-0.0556683838,-3.20302582,20.4029922,-45.9216309,2
0.52451425,0.035845958,-0.000706579625,0.00107579385,0.999356399,-0.0014932132,0.0717056872,0.00220653101,-0.0146057841,-0.702590124,-9.7814384,-0.0971738781,0.128133117,-0.0699532417,0.0382580534,0.0144584905,-0.0579050444,-3.25286865,20.4490433,-45.9279175,2
0.53447225,0.0360505787,-0.000481102403,0.000777074953,0.999349502,-0.00102025896,0.0721160009,0.00159196553,-0.00997931504,-0.706603524,-9.78115491,-0.219864402,0.11837993,-0.00708908148,0.0413036421,0.0724216625,-0.066455923,-3.25041962,20.2903519,-46.0232239,2
0.54443025,0.0362222267,-2.99455366E-06,0.000437604144,0.999343602,-3.77863241E-05,0.0724602904,0.000877152589,-0.000369584871,-0.709971028,-9.78091642,-0.295165051,0.13865641,0.0209533562,0.0242984295,0.108995073,-0.0752289742,-3.21230316,20.3874435,-45.9350891,2
0.55438725,0.0362058436,0.000545937908,0.000110865379,0.99934411,0.00108597908,0.0724276205,0.000182531592,0.0106218941,-0.709651514,-9.78093396,-0.270393159,0.0632188188,0.0639168841,-0.0333414339,0.103562228,-0.0610223375,-3.21266174,20.3674393,-45.7590027,2
0.56434525,0.0358896154,0.00103644705,-0.000106855345,0.999355162,0.00208459907,0.071794384,-0.00028871201,0.0203902561,-0.7034577,-9.78136592,-0.110322808,-0.0679223204,0.144853292,-0.0900210068,0.0906534195,-0.031400241,-3.26396942,20.3245621,-45.9953918,2
0.57430225,0.0353839427,0.00145519983,-0.000165611077,0.999372669,0.00292762879,0.070782098,-0.000435085253,0.0286382984,-0.693555827,-9.78205215,0.0173000624,-0.140372786,0.124890116,-0.107873239,0.0753205344,-0.000636737095,-3.26599121,20.2304001,-46.0728149,2
0.58426025,0.0348560712,0.00175974381,-0.000107977839,0.999390704,0.00353346372,0.0697257707,-0.000339324123,0.0345671724,-0.683222283,-9.78276001,0.10863564,-0.126165689,0.067837857,-0.101861104,0.0456072129,0.0175427776,-3.1995163,20.3428574,-45.8676147,2
0.59421725,0.0344157287,0.00192257491,1.05899516E-05,0.999405779,0.00385126872,0.0688449674,-0.000111430281,0.0376784842,-0.674605335,-9.78334687,0.115250793,-0.0837562146,0.0554062454,-0.0743770152,0.0265834555,0.0262007136,-2.97888184,20.5079117,-45.6624451,2
0.60417525,0.0341641376,0.00209410229,0.000138576305,0.999413942,0.00418606554,0.0683419988,0.000134217103,0.0409553299,-0.669684464,-9.78367186,0.0664840997,-0.0449829049,-0.038091538,-0.0261218678,0.0439845659,0.0222095661,-2.91047668,20.6639328,-45.9847107,2
0.61413225,0.0341633377,0.00232933481,0.000233723513,0.999413555,0.00465084133,0.0683408793,0.000308737892,0.0455025403,-0.669673504,-9.78365199,-0.0357764614,0.0281789235,-0.141211136,0.0255850013,0.0518840365,0.0124581363,-2.97364044,20.834877,-45.8666077,2
0.62409025,0.034417438,0.0026487594,0.000271679538,0.999403932,0.00528821354,0.0688496665,0.0003615648,0.051736553,-0.674651293,-9.78327906,-0.13403761,0.102289285,-0.12856559,0.0752107501,0.0792065933,-0.00235736137,-2.8948288,20.707634,-46.0702209,2
0.63404825,0.0348800402,0.00312639356,0.000230659755,0.999386523,0.00624810447,0.0697753308,0.000243531626,0.0611234814,-0.683707144,-9.78259634,-0.179337563,0.110147962,-0.09213877,0.106707424,0.110985562,-0.0215662085,-2.88591766,20.5834274,-45.941925,2
0.64400525,0.0354055807,0.0036828854,0.000102654083,0.999366147,0.00737238307,0.0708262337,-5.57511375E-05,0.0721164659,-0.693987496,-9.78179788,-0.171326562,0.123720415,-0.0493932687,0.0977172926,0.105189599,-0.035623394,-2.93406677,20.6373672,-45.894928,2
0.65396325,0.0357724629,0.00414643103,-6.29347321E-05,0.99935131,0.00831335676,0.0715590498,-0.000423527844,0.0813165938,-0.70115578,-9.78121453,-0.097328201,0.0868952433,0.0127221189,0.0469366722,0.0806411058,-0.0350348353,-2.85604095,20.6279373,-46.0958557,2
0.66392025,0.03592523,0.00451269092,-0.000206394838,0.999344211,0.00905779488,0.0718633169,-0.000738664494,0.0885961472,-0.704131946,-9.78093747,-0.00150744542,-0.0201121561,-0.0209241301,0.0197344813,0.0611321703,-0.0279137418,-2.85404205,20.6230621,-46.103241,2
0.67387825,0.0360372678,0.00476781165,-0.00032562255,0.999339033,0.0095778101,0.0720862072,-0.000997042027,0.0936808666,-0.70631214,-9.78073288,0.00687522866,-0.0798820036,-0.1468243,0.0277300887,0.0397254117,-0.0233472195,-2.79190826,20.367218,-46.0285645,2
0.68383525,0.0362078399,0.004947547,-0.000425469315,0.999331908,0.00994553099,0.0724263926,-0.00121182738,0.097275046,-0.709639458,-9.78045699,-0.046847548,-0.0400431104,-0.143659114,0.0418120436,0.0348385125,-0.0199458096,-2.71535492,20.4198608,-45.9928589,2
0.69379325,0.0364064279,0.00519591202,-0.000509149698,0.999323371,0.0104497509,0.0728226452,-0.00139964966,0.102203588,-0.71351513,-9.7801244,-0.115970622,0.0196473881,-0.0337082083,0.0364401825,0.066130124,-0.0172341801,-2.73469543,20.4026642,-46.097229,2
0.70375025,0.0365252283,0.00556515066,-0.000590760805,0.99931709,0.0111959555,0.0730589704,-0.00159149771,0.109499636,-0.715826549,-9.77987656,-0.0870543885,-0.00333002121,-0.0403904626,0.00815274846,0.0754599124,-0.0194623787,-2.81208801,20.46875,-46.103302,2
0.71370825,0.0364676355,0.00590178252,-0.000653724291,0.999317201,0.0118750406,0.0729424202,-0.00174163606,0.11614197,-0.714686658,-9.77988357,-0.052396734,-0.0349959101,0.00720130968,-0.030546179,0.0583357923,-0.0105852634,-2.78124237,20.3057709,-46.015625,2
0.72366625,0.0362671501,0.00623950614,-0.000680639263,0.999322411,0.0125532689,0.0725402603,-0.00181771574,0.12277854,-0.710753191,-9.78008874,-0.000225716781,0.00940356897,0.0294032046,-0.0484008528,0.0827409029,-0.00784937665,-2.77462769,20.427002,-46.2300415,2
0.73362325,0.0360400427,0.00667625869,-0.000720264915,0.999327762,0.0134307399,0.0720844239,-0.00192578913,0.131364573,-0.706294677,-9.78030034,0.0271012752,0.0616576339,0.0507137037,-0.0400851332,0.0867995545,-0.0168298222,-2.75535583,20.3319397,-45.7068787,2
0.74358125,0.0358997493,0.00706077518,-0.000807956664,0.99933009,0.0142071845,0.0718016692,-0.00212727373,0.13896122,-0.703528939,-9.78039445,0.0145665686,0.0695163116,-0.0162292503,-0.015160474,0.0662555248,-0.0246574506,-2.61491394,20.4429626,-45.8323975,2
0.75353825,0.0358811975,0.0073815847,-0.00092912658,0.999328352,0.0148587187,0.0717620566,-0.00239288633,0.14533387,-0.703141474,-9.78033015,0.0267489912,0.0737676123,-0.158749131,0.0068052779,0.0613936633,-0.0283898711,-2.65744781,20.4900665,-45.9047852,2
0.76349625,0.0359550498,0.00766751006,-0.00107195894,0.999323446,0.0154422477,0.0719069612,-0.00270082152,0.151039369,-0.704558867,-9.78014135,-0.01322352,0.00500482255,-0.171956403,0.0210461766,0.056451872,-0.0334152095,-2.63890076,20.3066101,-45.8108521,2
0.77345325,0.0360742971,0.00797131934,-0.00123657963,0.999316524,0.0160634316,0.0721421289,-0.00305453834,0.15711194,-0.706859106,-9.77988007,-0.0517674688,-0.0438709251,-0.115804308,0.0259141698,0.06081466,-0.0352525264,-2.67952728,20.1614532,-45.8736572,2
0.78341125,0.0362046075,0.00823225025,-0.00139955798,0.999309523,0.0165987168,0.0723994075,-0.00340219326,0.162343922,-0.709375546,-9.77961236,-0.0388932828,-0.107344669,-0.0873415988,0.0266555939,0.0389559679,-0.0337614231,-2.54855347,20.3368988,-45.9508667,2
0.79336825,0.0363245089,0.00834167382,-0.00155608809,0.999303986,0.0168299547,0.0726363476,-0.00372585763,0.164602497,-0.711693029,-9.77940602,-0.01900551,-0.107271823,-0.00255377614,0.0217055753,0.00165866502,-0.0284500141,-2.46712494,20.3149719,-45.781311,2
0.80332625,0.0364014324,0.00831312736,-0.00168933213,0.999301285,0.0167828508,0.0727881655,-0.00399210426,0.16414003,-0.713177934,-9.77930548,0.00644643619,-0.0570049858,0.0459784918,0.00853735302,-0.00978767127,-0.0238425024,-2.62862396,20.4384155,-46.0068054,2
0.81328425,0.0363703718,0.00830875286,-0.00178697627,0.999302196,0.016781038,0.0727243773,-0.00418692277,0.164123079,-0.71255403,-9.77935166,0.0292083031,-0.0140843472,0.113510644,-0.021133991,0.0095002735,-0.0155494185,-2.55670166,20.3569183,-45.8651733,2
0.82324125,0.0361943334,0.00840877612,-0.00183550479,0.999307743,0.0169840522,0.0723708442,-0.00428840695,0.166112682,-0.709096145,-9.7795691,0.0224303151,-0.0245751999,0.183309572,-0.048500672,0.0290769599,-0.00369260088,-2.5289917,20.3731995,-45.6845093,2
0.83319925,0.0359323289,0.00861549863,-0.00182369412,0.999315404,0.0173960135,0.0718458288,-0.00427508297,0.170147929,-0.703960901,-9.77987071,0.0786990226,0.0184727914,0.14081483,-0.0524035357,0.0546560884,0.00554936705,-2.46261597,20.4860382,-45.9014893,2
0.84315625,0.035705611,0.00891489805,-0.00178237136,0.999320957,0.0179917688,0.0713915801,-0.00420968158,0.175980051,-0.699517658,-9.7800864,0.105637554,0.0491944582,-0.00247194307,-0.0378776379,0.0650800541,0.0071857674,-2.55000305,20.3786316,-45.7616577,2
0.85311425,0.03556752,0.00926993068,-0.00173452188,0.999322772,0.0186990412,0.0711146336,-0.00413657863,0.18290079,-0.696808618,-9.78015304,0.0653475745,0.0574090366,-0.148900522,-0.017531354,0.0841996819,0.00608641375,-2.57578278,20.3398285,-45.9273987,2
0.86307125,0.0355437937,0.00971082235,-0.00168438335,0.999319556,0.0195788356,0.0710663068,-0.00406707044,0.191505902,-0.696335886,-9.78002152,0.0423772707,0.0109974871,-0.274428351,0.00839798059,0.0866685286,0.00545204803,-2.36224365,20.5039215,-45.8066406,2
0.87302925,0.0356398436,0.0100546227,-0.00165932591,0.999312666,0.020266515,0.0712576147,-0.00404333312,0.198228671,-0.698207233,-9.77975439,-0.0300364062,-0.0243909294,-0.286217573,0.0294244364,0.0521161482,0.00197395962,-2.40979767,20.4898834,-45.7982788,2
0.88298625,0.0358067438,0.0102498732,-0.00165082913,0.999304724,0.0206580972,0.071590993,-0.00404376111,0.202053417,-0.70146828,-9.77944284,-0.0233865199,0.0198707486,-0.228469733,0.036013674,0.0273735318,0.00130907912,-2.45773315,20.3118134,-45.809967,2
0.89294425,0.0359610478,0.010335738,-0.00163223822,0.999298399,0.0208296865,0.0718998269,-0.00401594069,0.20372694,-0.704489089,-9.77919092,0.0145939407,0.0230411953,-0.176797413,0.0226110481,0.00630313484,0.00608119741,-2.41187286,20.4339447,-45.8681641,2
0.90290225,0.0360146104,0.0102933368,-0.00158298355,0.999296939,0.0207414553,0.0720082046,-0.00391531869,0.202862523,-0.705549193,-9.77913246,0.0214438431,0.0076411624,-0.0525070168,-0.0032600956,-0.023114983,0.0141449152,-2.48583221,20.3857574,-45.8485718,2
0.91285925,0.0359358252,0.0101148485,-0.00151382032,0.999301778,0.0203783619,0.0718526548,-0.003762214,0.199314019,-0.704027682,-9.77931483,0.0332224158,0.0297624664,0.0512251603,-0.0263928454,-0.0461164415,0.0133241294,-2.53600311,20.4680176,-45.9444885,2
0.92281725,0.0358046537,0.00985916427,-0.00147968464,0.999309006,0.0198628458,0.0715917892,-0.00367274863,0.194276225,-0.701476025,-9.77960008,-0.0332665655,0.0541455778,0.0230780932,-0.022245327,-0.05469504,0.000739939278,-2.51028442,20.4450989,-45.8467102,2
0.93277425,0.0357709927,0.00960137081,-0.00151698477,0.999312663,0.019348746,0.0715246501,-0.00372832649,0.189249428,-0.700819315,-9.77974563,-0.0818100307,0.04271496,-0.13329671,0.0111488486,-0.0431536995,-0.0124805253,-2.44288635,20.3035889,-45.8700256,2
0.94273225,0.0358993143,0.00946697381,-0.00159690316,0.999309257,0.0190858284,0.0717804232,-0.0038813205,0.186674719,-0.703321141,-9.77961528,-0.110210305,0.0392312826,-0.161259652,0.0415700935,-0.0137052936,-0.0176409073,-2.5238266,20.395401,-45.68396,2
0.95268925,0.0361382579,0.00946297243,-0.00168968575,0.999300509,0.0190857889,0.0722568399,-0.00407159394,0.186667924,-0.707981096,-9.77927918,-0.091349154,0.0441904394,-0.0501157378,0.0519015603,0.0105382605,-0.0193679687,-2.56044006,20.2307281,-45.6963196,2
0.96264725,0.0363682658,0.0095725058,-0.00177077122,0.999291061,0.0193124708,0.0727151275,-0.00424653711,0.188878421,-0.712463575,-9.77891151,-0.0316097017,0.0126103291,0.0306201792,0.0373103209,0.0310407728,-0.0134480065,-2.52841949,20.3222046,-45.651947,2
0.97260425,0.0364854413,0.00971693459,-0.00180932621,0.999285218,0.0196054003,0.0729482432,-0.00433666627,0.191739674,-0.714743576,-9.7786894,0.0375047145,-0.016533567,0.0920487536,0.00870504323,0.0239008404,-0.00120891677,-2.45445251,20.3401794,-45.8550415,2
0.98256225,0.0364568118,0.00980884637,-0.00177930309,0.99928544,0.0197872407,0.072891146,-0.00428264701,0.193518648,-0.714185138,-9.77869466,0.0505398815,-0.0133510645,0.139788994,-0.0151516423,0.0150156245,0.0116181085,-2.54834747,20.364502,-45.7217712,2
0.99252025,0.0363552276,0.00985952482,-0.00169562207,0.999288862,0.0198821254,0.0726893069,-0.00411660538,0.194449353,-0.712210989,-9.77882033,0.0147436331,0.0184928844,0.113577864,-0.0226252712,0.00890153833,0.0198600609,-2.44939423,20.3473663,-45.8568115,2
1.00247725,0.0362634328,0.00992506969,-0.00160323749,0.999291681,0.0200062543,0.0725071841,-0.00393438566,0.19566578,-0.710429731,-9.77892554,-0.0539593528,-0.00543481147,-0.000191138658,-0.0119004967,0.019970756,0.0138199013,-2.32566071,20.5108185,-45.966217,2
1.01243525,0.0362453783,0.0100352305,-0.00154612427,0.999291329,0.0202227754,0.0724717753,-0.00382757505,0.197783631,-0.710083402,-9.77890801,-0.139575005,-0.0176024383,-0.0814613086,0.00733977696,0.0239444599,0.00735561084,-2.32566071,20.5108185,-45.966217,2
1.02239225,0.0362975989,0.0101061196,-0.00150134072,0.999288849,0.0203618623,0.0725769248,-0.003744067,0.199142224,-0.711111795,-9.77880572,-0.087662611,-0.0285449804,-0.0452016623,0.0118464204,0.00807878934,0.011776302,-2.33094025,20.3908691,-45.8809509,2
1.03235025,0.0363287862,0.0101401298,-0.00142715037,0.999287397,0.0204247812,0.0726407202,-0.00359852166,0.199756575,-0.711735772,-9.77874785,0.0396632077,-0.0309138284,0.0804354727,-6.13720622E-05,0.0133212218,0.0172911752,-2.25696564,20.3827972,-45.8189392,2
1.04230725,0.0362950982,0.0102157514,-0.00133552899,0.999287906,0.0205694937,0.0725749118,-0.00341972808,0.201172634,-0.711092141,-9.77876597,0.057400762,-0.0370941244,0.10185177,-0.0138585893,0.0166313928,0.0171736851,-2.29576874,20.4284515,-45.7226562,2
1.05226525,0.0362073041,0.0102781264,-0.00125045636,0.999290718,0.0206878937,0.0724007772,-0.00325195051,0.202333001,-0.709388917,-9.77886534,0.0439701112,-0.0287715556,0.0198000945,-0.0218528658,0.00830128975,0.0150567386,-2.3315506,20.4303284,-45.7103271,2
1.06222225,0.0361250262,0.0103528516,-0.0011714722,0.999292926,0.0208315329,0.0722375194,-0.00309736469,0.203740037,-0.707792149,-9.77895185,0.0210152607,0.0049460781,-0.0254535902,-0.0132286176,0.0227086674,0.0162536297,-2.26409149,20.5112305,-45.6203003,2
1.07218025,0.0360734032,0.0105041907,-0.00108264984,0.999293304,0.0211281592,0.0721356197,-0.00292923537,0.206642243,-0.706795393,-9.77896354,-0.0394974227,-0.0083208883,-0.0276870483,-0.00604154356,0.0362572335,0.0166666862,-2.38759613,20.3886414,-45.8108521,2
1.08213825,0.0360461187,0.0107135637,-0.000983201514,0.999292217,0.0215404409,0.0720825506,-0.00274450645,0.210674713,-0.706276338,-9.77891502,-0.0462234065,-0.0217087777,-0.0359650474,-0.00615472905,0.0527612939,0.01993718,-2.21586609,20.308197,-45.8917236,2
1.09209525,0.0359901879,0.0109709282,-0.00084031569,0.999291582,0.0220456546,0.0719730676,-0.00247554389,0.215616845,-0.705205494,-9.77888463,-0.0119604686,0.0129837655,0.00410743532,-0.0202449821,0.0568359271,0.033103317,-2.35020447,20.2797852,-45.6870728,2
1.10205325,0.0358456493,0.0112413803,-0.000655033389,0.999293884,0.0225737368,0.0716873346,-0.00212049882,0.220785407,-0.702410602,-9.77896997,-0.00321271497,0.0471493623,0.103252869,-0.0410492867,0.0573667102,0.0379314721,-2.15420532,20.5112,-45.5927124,2
1.11201025,0.0356015961,0.0115267754,-0.000454256403,0.99929939,0.0231304103,0.0712029839,-0.00173301158,0.226236896,-0.697672906,-9.77918449,-0.0355989723,0.0846093974,0.139081138,-0.0575398467,0.0608370751,0.0354776345,-2.33712006,20.4629822,-45.6107788,2
1.12196825,0.03531708,0.0118033313,-0.000294659317,0.999306389,0.02367234,0.0706369382,-0.0014261853,0.231545816,-0.692135804,-9.77945395,-0.10600025,0.107054527,0.0304144275,-0.0571419224,0.0492019057,0.0222847145,-2.1368103,20.6521759,-45.6356201,2
1.13192525,0.03506227,0.011979435,-0.000211524117,0.999313275,0.0240185915,0.0701287844,-0.00126592207,0.234940372,-0.687164883,-9.77972341,-0.111340095,0.0941528132,-0.0806464851,-0.0452248082,0.0182748847,0.00614835601,-2.30152893,20.5083313,-45.5549011,2
1.14188325,0.0348801004,0.0119775061,-0.000199302682,0.999319637,0.0240133335,0.0697645422,-0.00123689654,0.234894944,-0.683601638,-9.77997417,-0.065056647,0.105254053,-0.121845341,-0.0293480661,-0.017498266,-0.00135086337,-2.39000702,20.5097198,-45.5976562,2
1.15184125,0.0347685916,0.0118207214,-0.000225966882,0.999325378,0.023700705,0.0695409656,-0.00127669467,0.231841036,-0.681414357,-9.7801998,0.00488525129,0.126111036,-0.146160283,-0.0138098523,-0.0413380861,-0.00800903235,-2.24829865,20.5208282,-45.6815491,2
1.16179825,0.0347370979,0.0116074147,-0.000275272519,0.999328997,0.0232766296,0.0694770695,-0.00135987262,0.227694493,-0.680789284,-9.78034067,0.0600582359,0.115759446,-0.233407774,0.000323054846,-0.0424707122,-0.0078589851,-2.24501038,20.5801086,-45.5794678,2
1.17175625,0.0347729925,0.0114198429,-0.000308001021,0.999329906,0.0229031674,0.0695484019,-0.00141321041,0.224040774,-0.68148713,-9.78037633,0.0759822196,0.083537092,-0.322854821,0.0163611434,-0.0279799215,-0.0033273506,-2.24238586,20.4184723,-45.6527405,2
1.18171325,0.0348898997,0.0113399574,-0.000317327943,0.999326668,0.0227440973,0.0697822385,-0.0014290069,0.222481379,-0.683774729,-9.78025241,0.0552456297,0.0735543349,-0.323128961,0.0314316638,-0.00395707274,0.00125251058,-2.24389648,20.4538574,-45.7738953,2
1.19167125,0.0350632037,0.0113768688,-0.000301529812,0.999320296,0.0228174787,0.0701293513,-0.00140392003,0.223193637,-0.687170436,-9.77999814,0.0308906302,0.0928116278,-0.295849909,0.0380080715,0.0207613222,0.00461182185,-2.31334686,20.4136353,-45.8862305,2
1.20162825,0.0352618465,0.011517041,-0.0002742372,0.999311635,0.0230970345,0.0705272839,-0.00136371175,0.225921345,-0.691063133,-9.77966146,0.00332308001,0.120047791,-0.237827928,0.0422918089,0.0380300879,0.00561580947,-2.15225983,20.5474396,-45.7520142,2
1.21158625,0.0354774676,0.011756319,-0.000244961631,0.99930122,0.0235750951,0.0709591275,-0.00132708983,0.230589538,-0.695287473,-9.77925287,0.0315751601,0.088508816,-0.141869892,0.045257505,0.0594533533,0.00511247246,-2.05594635,20.6156769,-45.840271,2
1.22154325,0.0357209207,0.0120530596,-0.000208168931,0.999289021,0.0241678567,0.0714467992,-0.00128040158,0.23637804,-0.700057829,-9.77877415,0.054816335,0.0154675452,-0.0331131651,0.0510031842,0.0617199428,0.00559481513,-2.02435303,20.552948,-45.730011,2
1.23150125,0.0359733214,0.0123686402,-0.000164786706,0.999276206,0.0247979302,0.071952561,-0.00122238018,0.242530535,-0.705004857,-9.77826854,0.0667700085,0.0100896515,-0.0012976386,0.0467948578,0.0641428828,0.00906384829,-2.03044128,20.5803833,-45.6954041,2
1.24145925,0.0361698828,0.0126446729,-0.000113587747,0.999265643,0.0253480063,0.0723468647,-0.00114471605,0.247902218,-0.708861605,-9.7778547,0.0431425378,-0.0197221339,0.0597901596,0.0327566713,0.0455186442,0.00872409623,-2.02410126,20.635788,-45.8032837,2
1.25141625,0.0362956503,0.0127834703,-7.49679741E-05,0.999259267,0.0256237382,0.0725993709,-0.00108064043,0.250593686,-0.711331356,-9.77760686,-0.00129782126,-0.0293730287,0.118050625,0.0184538998,0.0100693079,0.00378313311,-2.10372162,20.559021,-45.7567749,2
1.26137425,0.0363328495,0.012741332,-5.96047557E-05,0.999258422,0.0255382775,0.0726742481,-0.00104774473,0.249756723,-0.712063762,-9.77757471,-0.0163224632,0.00158624628,0.153483173,-0.00297487085,-0.0262041651,0.00247587706,-2.09578705,20.6125031,-45.7019043,2
1.27133125,0.0362566762,0.0125607158,-3.41201859E-05,0.999263546,0.0251742302,0.0725226484,-0.000981590104,0.246199926,-0.710580976,-9.77777287,0.0203042629,0.0283848944,0.149341251,-0.0268343966,-0.0443046056,0.00966827665,-2.22042847,20.460083,-45.6170959,2
1.28128938,0.0360887616,0.0123000806,2.56567603E-05,0.999272885,0.0246471031,0.0721883542,-0.000838697583,0.241051603,-0.707311234,-9.77813819,0.0431098228,0.00611117636,0.116337392,-0.0389050879,-0.0583636723,0.0168278739,-2.13646698,20.5484009,-45.7343445,2
1.29124638,0.035895957,0.0120010756,0.000118189054,0.999283384,0.0240407254,0.0718049916,-0.000626987174,0.235128807,-0.703561453,-9.7785532,0.019105098,-0.0245733733,0.0272691152,-0.0368248932,-0.0580832437,0.0227629952,-2.16497803,20.4509277,-45.8612976,2
1.30120438,0.0357504495,0.0117342168,0.000228822627,0.999291779,0.0234976737,0.0715165784,-0.000382664092,0.229823266,-0.700740331,-9.7788817,0.0146841945,-0.0290405088,-0.107076227,-0.019844709,-0.0463119261,0.0259716362,-2.14976501,20.4354858,-45.6647339,2
1.31116238,0.0357093349,0.0115319303,0.000356904764,0.99929554,0.0230830427,0.0714373353,-0.000110570461,0.225769899,-0.699965255,-9.77903193,0.0245733916,-0.0239796452,-0.166631409,0.00180812157,-0.0331271514,0.0282829944,-2.17608643,20.4283752,-45.7271423,2
1.32111938,0.0357510894,0.0114117221,0.000488585371,0.999295398,0.0228327842,0.0715239159,0.000160930696,0.223321228,-0.700812154,-9.77902725,0.0187920317,0.0136780314,-0.133117262,0.0120865926,-0.0112826722,0.0268616676,-2.18018341,20.53302,-45.7539368,2
1.33107738,0.035809359,0.0114204954,0.000621416013,0.999293101,0.0228409143,0.0716435575,0.00042512281,0.223398823,-0.70198244,-9.77894132,0.014823877,0.0654258274,-0.0594318477,0.00962343439,0.0154088605,0.0253551155,-2.23220825,20.3361664,-45.838623,2
1.34103438,0.0358413942,0.0115762064,0.000754403744,0.999290073,0.0231434405,0.0717108108,0.000679668473,0.226356102,-0.702640247,-9.77882617,0.0214433865,0.0580032031,-0.0203419463,0.00250396272,0.0510843694,0.0250779055,-2.20143127,20.4240875,-45.7250366,2
1.35099238,0.0358692321,0.0118595446,0.000882688357,0.999285746,0.0237020558,0.0717697585,0.000915687694,0.231817692,-0.703216804,-9.77865666,0.0264564288,-7.81067375E-05,-0.0460994879,0.00886465702,0.0605812036,0.0219225921,-2.08436584,20.4766083,-45.6836548,2
1.36094938,0.0359535954,0.0121495496,0.000991952447,0.999279113,0.0242754243,0.0719414978,0.0011117106,0.237421485,-0.704896647,-9.77840123,-0.00668070161,-0.0280264364,-0.113242348,0.0246459711,0.0596818402,0.0186049808,-1.9910965,20.6198425,-45.8300476,2
1.37090738,0.0361102693,0.0124439291,0.00108680696,0.999269661,0.0248586127,0.0722577034,0.00127665089,0.243118546,-0.707989572,-9.77803824,-0.0331773894,-0.0143093151,-0.135752286,0.03799906,0.0579465255,0.015496539,-1.9910965,20.6198425,-45.8300476,2
1.38086438,0.0363165629,0.0127146634,0.00116608458,0.999258745,0.025395535,0.0726728904,0.00141065861,0.248361068,-0.712050464,-9.77761154,-0.0472485118,-0.000372413509,-0.07168518,0.0439026281,0.0506597087,0.0132074859,-2.00097656,20.4237976,-45.9344177,2
1.39082238,0.036531464,0.0129390021,0.00123992459,0.999248022,0.0258398378,0.0731051724,0.00153672821,0.252697288,-0.716278457,-9.77719127,-0.000707965606,0.0442578055,-0.0376882179,0.0427337661,0.0421567634,0.0147169661,-2.10044861,20.4825897,-45.7930908,2
1.40078038,0.0367128011,0.0131558789,0.00132609719,0.999238327,0.0262682253,0.0734706483,0.00168875258,0.256878794,-0.719852882,-9.77682009,0.0419471174,0.0960155384,-0.00843172826,0.0289632659,0.0476083271,0.0186672751,-2.07395935,20.3278961,-45.9276123,2
1.41073738,0.0368091447,0.013407214,0.00144982478,0.999231253,0.0267628532,0.0736671838,0.00191560096,0.261710872,-0.721775082,-9.77655005,0.0999628512,0.119036568,0.0131453128,0.0100225983,0.0545171015,0.0275792759,-2.11481476,20.2884064,-45.9862671,2
1.42069538,0.0368258701,0.0137224254,0.00161570582,0.999226121,0.0273823691,0.0737058025,0.00222427122,0.267766774,-0.722152756,-9.77635832,0.120093511,0.0941254868,0.0433300232,-0.00121172238,0.0745415613,0.0343369357,-2.05930328,20.2779541,-45.9613342,2
1.43065238,0.0368020776,0.0141151167,0.00181355589,0.999221236,0.0281548291,0.0736646372,0.00259238936,0.275319382,-0.721750167,-9.77617829,0.0692956545,0.00423961033,0.0275876796,-0.00703179464,0.0862549394,0.0405468978,-2.0304718,20.3121796,-45.9447632,2
1.44061038,0.0367744599,0.014581167,0.00205137631,0.999215073,0.0290713919,0.0736174897,0.00303532915,0.284280723,-0.721289052,-9.77595559,0.0308556867,-0.0218095346,0.0228758487,-0.00532608572,0.107945226,0.0476722084,-1.87677765,20.4493103,-45.946228,2
1.45056737,0.0367510553,0.0151311564,0.00231687194,0.999207109,0.0301541717,0.0735803223,0.0035274498,0.294866579,-0.720925553,-9.77566917,-0.0603848558,-0.0133443425,0.0719698422,-0.00539213233,0.11091385,0.0476125516,-1.8986969,20.4301147,-46.0125427,2
1.46052538,0.0367214313,0.0156296371,0.00253476295,0.99920006,0.0311372614,0.0735295871,0.00392820972,0.304477927,-0.720429367,-9.77541081,-0.204819667,-0.0407753702,0.10567922,-0.00658784853,0.0911517888,0.0330988355,-1.85978699,20.4264832,-46.1694641,2
1.47048238,0.0366496018,0.0160326792,0.00268309515,0.999195935,0.031934287,0.0733921696,0.00419800623,0.312272234,-0.719085331,-9.7752641,-0.299254165,-0.090153003,0.18888065,-0.0262137465,0.0696465075,0.0199207142,-1.74617767,20.356781,-46.32724,2
1.48044038,0.0364205071,0.0162497511,0.0027680918,0.99920057,0.0323635716,0.0729373968,0.00435971464,0.316479148,-0.714637485,-9.77545465,-0.277573736,-0.090560634,0.264189281,-0.0674154609,0.0164526105,0.00925406907,-1.69828033,20.3865433,-46.2185364,2
1.49039838,0.0359957831,0.0161794286,0.00279800723,0.999216987,0.0322213337,0.0720881567,0.00443839233,0.315108115,-0.70633121,-9.77610289,-0.147664039,-0.0571180908,0.319006328,-0.103644304,-0.0459388606,7.41526019E-05,-1.69885254,20.4930649,-46.2166443,2
1.50035538,0.035403015,0.015784544,0.00276637155,0.999244567,0.0314334974,0.0708992559,0.00442204647,0.307432247,-0.694701855,-9.77718074,-0.0524501355,0.0131043232,0.279681449,-0.132063478,-0.108269617,-0.0107401256,-1.80935669,20.6370926,-46.0611267,2
1.51031338,0.0347250486,0.0151257347,0.00268632744,0.999278741,0.030120421,0.069537298,0.00432877108,0.294622011,-0.681378482,-9.77851229,0.0315875812,0.0644244683,0.209935713,-0.138505667,-0.153620318,-0.0176771283,-1.8068924,20.5725632,-45.9526672,2
1.52027038,0.0340462723,0.0143541567,0.00258281269,0.999313856,0.0285830223,0.0681727649,0.00419442531,0.279614503,-0.668028733,-9.77987422,0.130990698,0.0860898452,-0.0230348386,-0.132855773,-0.153247133,-0.0165243782,-1.83908844,20.7385483,-45.872467,2
1.53022838,0.0334350327,0.0136803828,0.00249136174,0.999344102,0.0272406008,0.0669443622,0.00407378349,0.266507696,-0.656009647,-9.78105379,0.151280092,0.0993596612,-0.209051916,-0.111309201,-0.114323698,-0.0148082366,-2.02666473,20.5799637,-45.8696289,2
1.54018538,0.0329860853,0.0132930732,0.00242762037,0.999364472,0.0264698841,0.0660427833,0.00398387771,0.258984753,-0.647187751,-9.78184348,0.112265777,0.0879937791,-0.416857046,-0.0658069104,-0.0408722833,-0.00595457852,-1.98320007,20.7600784,-45.670929,2
1.55014338,0.0328313908,0.0132476342,0.00241397041,0.999370177,0.0263800969,0.0657327103,0.00396359377,0.258111751,-0.644153571,-9.78206676,0.0724373501,0.0119364484,-0.672962974,0.00404593674,0.0195926577,0.00132117723,-2.00402832,20.6733932,-45.7072144,2
1.56010138,0.033008733,0.0134608426,0.00246880464,0.99936133,0.0268032242,0.0660898686,0.00405466806,0.262244595,-0.6476485,-9.78172599,0.0332892888,0.00241290636,-0.794659847,0.0673526451,0.0666559264,0.0185421519,-1.8587265,20.794838,-45.7294922,2
1.57005838,0.0334738594,0.0138709353,0.00259510455,0.999339949,0.027615332,0.0670256965,0.00426775148,0.270171479,-0.656805547,-9.78089947,-0.0121966155,-0.0149159026,-0.718422995,0.118275747,0.0946279094,0.0280493703,-1.88428497,20.6081161,-46.0046387,2
1.58001638,0.0341395724,0.0143334404,0.00273948914,0.999310548,0.0285305723,0.0683638408,0.00450706901,0.279097914,-0.66989818,-9.77976082,-0.0739451426,0.010297376,-0.537602318,0.143244162,0.089346759,0.0273774788,-1.85276794,20.5695572,-45.8425598,2
1.58997338,0.0348362124,0.0147125776,0.00286874066,0.999280539,0.0292795076,0.0697632863,0.00471979071,0.286394519,-0.68358929,-9.7786023,-0.118202236,0.0823472246,-0.236941209,0.132153168,0.0646438152,0.0240330789,-1.70080566,20.5429001,-46.0614014,2
1.59993138,0.03540738,0.0149552058,0.00297494744,0.999256635,0.0297566686,0.0709105123,0.00489875322,0.291036919,-0.694811964,-9.77767467,-0.11012544,0.143997771,0.0605079525,0.0971008688,0.0301080924,0.0182254147,-1.79347229,20.5225449,-46.122345,2
1.60988838,0.035749327,0.0149672905,0.0030448813,0.999243962,0.0297749147,0.0715968988,0.00502791986,0.291201061,-0.701526002,-9.7771901,-0.115526897,0.112254872,0.265026901,0.0395603441,-0.0231516659,0.0124681927,-1.77671814,20.5172195,-46.082428,2
1.61984638,0.0357986946,0.0147485504,0.0031044856,0.999245284,0.0293321174,0.0716963352,0.00516161096,0.28686968,-0.702498646,-9.77724855,-0.117480296,0.0791102155,0.391678766,-0.0192175787,-0.060590297,0.0149235344,-1.65039062,20.6186142,-45.8649292,2
1.62980438,0.0355994818,0.0143602885,0.00315524811,0.999257871,0.0285510168,0.0712971339,0.00529685707,0.279240555,-0.698593821,-9.7777489,-0.0939895855,0.0545553277,0.404000487,-0.059068054,-0.093070738,0.00868294947,-1.49678802,20.6533279,-45.9307861,2
1.63976138,0.0352724591,0.0138565388,0.00316598196,0.999276642,0.0275418495,0.0706403634,0.00536327687,0.269385608,-0.692169341,-9.77848247,-0.0808425922,0.0199989781,0.30432723,-0.0700631812,-0.106186926,8.42711888E-05,-1.66868591,20.6032028,-45.9717712,2
1.64971938,0.034957916,0.0133398561,0.00314361652,0.999294742,0.0265091397,0.0700075653,0.00536329499,0.259298696,-0.685979035,-9.7791915,-0.0351419492,-0.0119289958,0.148814012,-0.0543457344,-0.0989148989,-0.00463591516,-1.74962616,20.6288071,-45.9277649,2
1.65967638,0.0347632389,0.0128862387,0.00311368136,0.999307658,0.0256029547,0.0696148034,0.00534007615,0.250443701,-0.682136753,-9.77969068,0.0211481664,-0.0552756048,0.00581131663,-0.0244669802,-0.0798403695,-0.00356556964,-1.7869873,20.6080093,-45.9996033,2
1.66963437,0.0347142871,0.0125540525,0.00308660935,0.999313598,0.0249393832,0.0695143888,0.00531022131,0.243955837,-0.681154391,-9.77992332,0.0508298774,-0.0567068797,-0.0728150608,0.00374202174,-0.051853478,-0.00410619145,-1.85140228,20.6270523,-45.9730835,2
1.67959138,0.0347720989,0.012357286,0.0030576185,0.999314187,0.0245469209,0.0696283184,0.00526444593,0.240115656,-0.682268928,-9.77994086,0.0394069862,-0.0485592291,-0.102725046,0.0169968382,-0.0298857633,-0.00390645536,-1.83251953,20.6187515,-45.8865051,2
1.68954938,0.0348346436,0.0122716089,0.00303425025,0.99931309,0.0243766502,0.0697524495,0.00522210008,0.238448344,-0.683483272,-9.77989643,0.0264098315,-0.0437536554,-0.0765828889,0.00782651082,-0.00543607958,-0.00444121799,-1.86214447,20.6246567,-45.7664185,2
1.69950638,0.0348288307,0.0122887257,0.00302474019,0.999313078,0.024411633,0.0697406724,0.00520198986,0.238790672,-0.683368121,-9.77989643,0.0238229568,-0.0206750507,-0.0360310983,-0.00916436315,0.00985322706,0.000119669596,-1.88382721,20.6384506,-45.8739014,2
1.70946438,0.034747568,0.012328452,0.003032518,0.999315374,0.0244909789,0.0695784568,0.00521676239,0.239569383,-0.681781144,-9.7799882,0.0366612312,0.0381917104,0.0073059391,-0.0234908368,0.00760099106,0.000306091039,-1.80736542,20.6656723,-45.9751892,2
1.71942238,0.0346059611,0.0123671727,0.00302922164,0.99931993,0.024569297,0.0692952231,0.00521089676,0.240340057,-0.679010292,-9.78016181,0.0156894991,0.0786659788,0.0175052616,-0.0319005661,0.0108569721,-0.00563835073,-1.80736542,20.6656723,-45.9751892,2
1.72937938,0.0344437424,0.0124138205,0.00298522625,0.999325056,0.0246663778,0.0689697723,0.00512346917,0.241294965,-0.675826328,-9.78035879,-0.0261164563,0.0518392736,-0.0137216514,-0.0321660861,0.00460173935,-0.0145881698,-1.93217468,20.5739059,-45.9345398,2
1.73933738,0.0342794932,0.012409264,0.00289813917,0.999330973,0.0246638013,0.06863893,0.00495331783,0.241275274,-0.672589538,-9.78058266,-0.0784699265,-0.0516547108,-0.0450718984,-0.03168552,-0.00441824785,-0.0193194766,-1.92325592,20.5982285,-45.9114685,2
1.74929438,0.034146621,0.0123621871,0.00278266507,0.999336504,0.0245778226,0.0683699822,0.00472844847,0.240438787,-0.669958239,-9.78078374,-0.1288095,-0.117582643,-0.0424760367,-0.020307431,-0.0184483118,-0.0277776755,-1.97583008,20.6224594,-45.7745361,2
1.75925238,0.0340978674,0.0122171754,0.0026269181,0.999340376,0.0242980727,0.0682679533,0.00442753913,0.237704265,-0.668960022,-9.78091876,-0.165878581,-0.17245047,-0.0354576824,0.00171549025,-0.0367613025,-0.0316938087,-2.14196777,20.5953293,-45.725647,2
1.76920938,0.0341457324,0.0120171782,0.00246965908,0.999341529,0.0239079848,0.0683590811,0.00412504107,0.233887356,-0.669851564,-9.78094974,-0.118816422,-0.158390746,0.0256254396,0.0144829508,-0.0490664355,-0.0268750861,-2.15985107,20.6008682,-45.8678284,2
1.77916738,0.0341977935,0.011725823,0.00234398625,0.999343465,0.0233326978,0.0684591147,0.00389202665,0.228258903,-0.670830273,-9.78101579,-0.0274456225,-0.100849096,0.193285607,0.00317880791,-0.0670502558,-0.0168809965,-2.04476166,20.5987015,-45.6169434,2
1.78912538,0.0341056,0.0113764741,0.00229947443,0.999350742,0.0226359882,0.0682722581,0.00382888929,0.221447159,-0.669002108,-9.78129753,0.116583822,-0.0182815797,0.336022345,-0.0428621881,-0.0725174621,0.00601925841,-2.11747742,20.590065,-45.5505676,2
1.79908238,0.0337404738,0.0110060174,0.00237419256,0.999367213,0.0218895471,0.0675418489,0.004011842,0.214156582,-0.661855816,-9.78194577,0.257949674,0.13932313,0.401763522,-0.10519848,-0.0738712326,0.0255485978,-2.13505554,20.6419296,-45.5623474,2
1.80904038,0.0330822046,0.0106815923,0.00251599479,0.999392397,0.0212318704,0.0662263572,0.00433170019,0.207741472,-0.64898406,-9.78294705,0.25837928,0.252895149,0.306247969,-0.153939128,-0.0510418117,0.0326003805,-1.99353027,20.7726517,-45.5566406,2
1.81899738,0.0322916015,0.010522389,0.00268059408,0.999419522,0.0209046276,0.0646471465,0.00468831708,0.204561235,-0.63353047,-9.78402666,0.165941107,0.204221938,-0.00930558848,-0.157335982,-0.00965397991,0.0327033103,-2.07446289,20.8196182,-45.4202271,2
1.82895538,0.0316161768,0.0105429973,0.00284899223,0.999440321,0.0209375037,0.0632993004,0.00503824842,0.204900586,-0.620339638,-9.78486487,0.0273366092,0.0813467423,-0.301906725,-0.108391352,0.0215667896,0.0335496627,-2.18674469,20.854393,-45.4436035,2
1.83891238,0.0312650392,0.0107034288,0.00303147047,0.999449256,0.0212487282,0.0626014151,0.00540092126,0.207955006,-0.61350928,-9.78523078,-0.0294377097,-0.00524045794,-0.529588522,-0.0302485637,0.0423786938,0.034747269,-2.01573944,20.8975296,-45.5298462,2
1.84887038,0.0313268319,0.010908405,0.00318462066,0.999444562,0.0216494328,0.0627294737,0.00569348099,0.21187428,-0.614762641,-9.78506828,-0.0875258146,-0.03376498,-0.651705667,0.0540852249,0.0387836918,0.022895135,-2.04154205,20.9092941,-45.4583435,2
1.85882838,0.0317491451,0.0110282364,0.0032649951,0.999429635,0.0218825237,0.0635769085,0.00583781898,0.214143613,-0.623056568,-9.78449428,-0.160424097,-0.0353471346,-0.472415267,0.107387811,0.0108773941,0.011297089,-2.02306366,20.9496536,-45.3062744,2
1.86878538,0.0323128372,0.011033405,0.0032996961,0.999411463,0.0218881266,0.0647055958,0.00589483703,0.214182904,-0.634102425,-9.7837835,-0.107641313,0.0318128961,-0.182678873,0.111706659,-0.00911495648,0.00492760725,-2.0969162,20.8435898,-45.5589905,2
1.87874338,0.03277077,0.0109369239,0.00331518469,0.999397508,0.0216917718,0.0656216542,0.00592233314,0.212249123,-0.643066798,-9.78324048,-0.0195162543,0.0481095125,0.106625561,0.0674933046,-0.0265775137,0.00541700749,-2.03791809,20.837471,-45.4802551,2
1.88870038,0.0329300253,0.0107943993,0.00334888412,0.999393738,0.0214032981,0.065940196,0.00599585439,0.209422503,-0.646183908,-9.78309611,0.0985313206,0.068434873,0.3464999,-0.004823233,-0.0283988491,0.00991162471,-2.05786896,20.7731857,-45.4831238,2
1.89865838,0.0327485068,0.010667142,0.00340680504,0.999400848,0.0211453889,0.065577444,0.0061240632,0.206904291,-0.642634179,-9.78338369,0.149981029,0.111422439,0.417266796,-0.066063419,-0.019308148,0.0144070406,-1.93296814,20.9053726,-45.5127258,2
1.90861538,0.0323307187,0.0106180103,0.00349510671,0.999414704,0.02104323,0.0647430342,0.00631281407,0.205916047,-0.634468847,-9.78393723,0.114158422,0.105501671,0.232120072,-0.0959225148,0.00256492523,0.0196710452,-1.99507141,20.8427658,-45.5437622,2
1.91857338,0.0318794554,0.0107042466,0.0036066393,0.999427808,0.0212110881,0.0638430023,0.00654003046,0.207570372,-0.625660759,-9.78446973,0.0402291163,0.052400853,-0.0790425571,-0.079638347,0.0377909094,0.0226107761,-1.95909882,21.0341568,-45.319397,2
1.92853138,0.0316006554,0.010966946,0.00374001147,0.999433373,0.0217303036,0.0632897761,0.00679631853,0.212658087,-0.620246406,-9.78470529,-0.038330644,-0.0354638198,-0.305657602,-0.0290151201,0.069788523,0.0268257596,-1.91062164,20.8719559,-45.6197205,2
1.93848838,0.031601704,0.0113540896,0.00389064748,0.999428401,0.0224962427,0.0632978906,0.0070734545,0.220152407,-0.620325828,-9.78453461,-0.0717122872,-0.0702498865,-0.426136916,0.0276011974,0.085183695,0.0288751069,-1.90995789,21.0217056,-45.389801,2
1.94844638,0.0318355256,0.0117900818,0.0040449902,0.999415293,0.0233584294,0.0637724213,0.00734956926,0.228581504,-0.624970001,-9.78404537,-0.0704149226,-0.0524376779,-0.364077642,0.0618627667,0.0898751169,0.0268668178,-1.96490479,20.9430313,-45.3287354,2
1.95840338,0.0321755661,0.012211144,0.00417229195,0.999398868,0.0241917103,0.0644589738,0.00756955906,0.236723858,-0.631688934,-9.78342052,-0.0815500281,-0.0626277211,-0.166133396,0.0734341145,0.0779772401,0.0180061273,-1.96881104,20.9526749,-45.4944153,2
1.96836138,0.0325184237,0.0125328282,0.00425132283,0.999383491,0.0248289299,0.0651493912,0.00769871656,0.242947116,-0.638445422,-9.78282898,-0.0647291138,-0.0694882545,0.0201730195,0.0604512021,0.0506729111,0.0113490233,-1.98851776,20.9249344,-45.4822388,2
1.97831838,0.0327482208,0.0126985806,0.00429784552,0.999373697,0.0251565375,0.065611639,0.00777540398,0.246144579,-0.642968818,-9.78245313,-0.0411414271,-0.0157341602,0.183200851,0.0331659131,0.0139321787,0.00722012203,-2.03491974,20.8388748,-45.5842285,2
1.98827638,0.0328357387,0.0127081217,0.00431713908,0.999370574,0.0251738421,0.0657873115,0.007811259,0.246311003,-0.644687897,-9.78233564,-0.0118292435,0.0634971974,0.232014858,0.00107908272,-0.0100535806,0.00435216352,-1.88082886,20.7905655,-45.755249,2
1.99823338,0.0327718043,0.0126190232,0.00433727592,0.999373685,0.0249944132,0.0656591895,0.00785903783,0.244557839,-0.64343417,-9.78246248,0.0141651939,0.0698750619,0.196827225,-0.0237473454,-0.0239257887,0.00631140918,-1.92596436,20.7816849,-45.6084595,2
2.00819138,0.0326408357,0.0124782707,0.00436971455,0.999379687,0.0247111305,0.0653968337,0.00793645374,0.241790786,-0.640866804,-9.7826998,0.0262097606,0.0343874228,0.0694236648,-0.0247758571,-0.0295423977,0.00736362394,-2.02757263,20.7782669,-45.719635,2
2.01814938,0.0325660021,0.0123677307,0.00440949741,0.999383284,0.0244875549,0.0652471923,0.0080251832,0.239605953,-0.639402504,-9.78284944,0.0200149246,-0.0142127959,-0.113134796,-0.00258963997,-0.0118813924,0.0112424064,-1.98931885,20.8259506,-45.6194763,2
2.02810638,0.0326063393,0.0123530929,0.00448710789,0.99938179,0.024452891,0.0653296836,0.00818063173,0.239265542,-0.640209729,-9.78280443,-0.0017910664,-0.0273217952,-0.206851775,0.0165321231,0.00919353403,0.0203986205,-1.96631622,20.8595352,-45.7216492,2
2.03806438,0.03268923,0.0124560453,0.00461228991,0.999377229,0.0246503811,0.06549947,0.0084226382,0.241194866,-0.641871159,-9.78264836,-0.0276623888,-0.0045614627,-0.173938517,0.0146398973,0.0322574899,0.028651908,-1.90770721,20.8489914,-45.5598755,2
2.04802138,0.0327536251,0.0125926036,0.00474804838,0.999372812,0.0249145944,0.065632856,0.00868404029,0.24377743,-0.643176469,-9.78249872,-0.0601724734,-0.0312384572,-0.0992693525,0.0103119947,0.0222972669,0.0228962861,-1.91995239,20.7399063,-45.5498657,2
2.05797938,0.0328003804,0.0126398371,0.00484383504,0.999370222,0.0250025839,0.065729216,0.00887165954,0.24463664,-0.644119376,-9.78241514,-0.0831780312,-0.0273027983,-0.036355508,0.0101513229,-0.000507520745,0.014315228,-1.82735443,20.7820053,-45.6952515,2
2.06793638,0.0328631748,0.0125704709,0.00488299121,0.999368794,0.0248605762,0.0658552167,0.00895313371,0.243245442,-0.645352352,-9.78236838,-0.13625492,-0.0215806943,-0.0182961197,0.0169871245,-0.0247880928,0.00384740788,-1.82735443,20.7820053,-45.6952515,2
2.07789438,0.0329783314,0.0124050726,0.00488015767,0.99936706,0.024528557,0.0660840824,0.00895560785,0.239993856,-0.647591875,-9.78230116,-0.148565664,-0.0482211562,0.0432873531,0.0269011408,-0.0417996086,-0.00253678905,-1.91550446,20.7626724,-45.6679382,2
2.08785238,0.0331285594,0.0121569813,0.00483786108,0.999365467,0.024033232,0.066381445,0.00888377863,0.235143767,-0.650501625,-9.78222575,-0.133540218,-0.0337893838,0.0921434462,0.0321361162,-0.0583756566,-0.010176599,-1.99489594,20.7946548,-45.6123047,2
2.09780937,0.0332670158,0.0118349857,0.00475039622,0.999365157,0.0233929552,0.0666535774,0.00872682029,0.22887625,-0.653164414,-9.78219711,-0.131761828,0.0386046021,0.174714762,0.0211730357,-0.0697899386,-0.0181328375,-1.97003937,20.8652267,-45.7843628,2
2.10776738,0.0333149751,0.0114615184,0.00463538722,0.999368413,0.0226520716,0.0667436678,0.00852031236,0.221627374,-0.654045946,-9.78230466,-0.119126,0.0227267225,0.243805834,-0.00472886767,-0.0824886858,-0.0237830002,-2.11675262,20.7278976,-45.5960388,2
2.11772438,0.0331928364,0.0110033551,0.00451240267,0.999378094,0.0217432233,0.0664926766,0.00830718036,0.212740212,-0.651590004,-9.7826659,-0.0868953894,-0.00786108876,0.277835529,-0.044810731,-0.10381908,-0.0195691027,-2.22137451,20.7816544,-45.4972839,2
2.12768238,0.0328597173,0.0104324752,0.00440286344,0.999395821,0.0206090709,0.0658191067,0.00813248896,0.201654042,-0.644999009,-9.78333751,0.000805251968,-0.00382788773,0.290327931,-0.0900077671,-0.12511611,-0.0183240753,-2.12586212,20.8762894,-45.3324585,2
2.13763938,0.0323390862,0.00980502658,0.00430484818,0.999419624,0.019362049,0.0647703309,0.00798736147,0.189466852,-0.634735973,-9.78425229,0.0366352017,0.0387311511,0.239019184,-0.117525995,-0.12401145,-0.0152634149,-2.10812378,20.836586,-45.466217,2
2.14759738,0.0317375452,0.00922140894,0.00421061759,0.999444878,0.0182030708,0.0635602974,0.00784715654,0.178140846,-0.622893998,-9.7852261,0.0377858513,0.0578641599,0.0689572164,-0.120418184,-0.109560072,-0.0182347037,-2.2217865,20.966713,-45.3582764,2
2.15755538,0.0311753956,0.00869069459,0.004112269,0.999467606,0.0171499811,0.062429618,0.00769335075,0.167848,-0.611827793,-9.78610639,0.000793232737,0.0372211484,-0.0358066419,-0.103910007,-0.105388567,-0.0164602622,-2.23756409,21.031395,-45.3024597,2
2.16751238,0.0306941848,0.00814080391,0.0040354697,0.999487424,0.0160565371,0.061461295,0.00758143916,0.157156784,-0.602350027,-9.78687212,0.0408133824,0.0424079033,-0.00825578717,-0.0934262052,-0.115854792,-0.0102604236,-2.36270142,21.1313095,-45.3218384,2
2.17747038,0.0302058414,0.00753773996,0.00400540653,0.999507153,0.0148537791,0.0604791551,0.00756540131,0.145394148,-0.592736395,-9.78764076,0.145201722,0.0736453377,0.0715215139,-0.106967978,-0.12160141,0.00409674644,-2.3216629,21.0747604,-45.3877563,2
2.18742738,0.0296031005,0.00695738653,0.00403963826,0.999529335,0.013693524,0.0592692399,0.00767710903,0.13404761,-0.580892447,-9.78851287,0.24273952,0.107740171,0.108755558,-0.138266504,-0.110859819,0.0147067802,-2.48703003,21.0689926,-45.6869507,2
2.19738538,0.0288589934,0.0064194511,0.00410717671,0.999554412,0.0126175116,0.0577771398,0.00785336038,0.123525769,-0.566284989,-9.78950714,0.152106332,0.0787674664,0.0525882654,-0.16046378,-0.102916956,0.016059842,-2.45068359,21.1213303,-45.5929565,2
2.20734238,0.0280575299,0.00588084402,0.00416784078,0.999580252,0.0115413304,0.0561700587,0.00801490492,0.113000776,-0.5505505,-9.79053181,0.115196195,0.103285493,-0.0862982273,-0.15887548,-0.112418048,0.0101329759,-2.57792664,21.2665176,-45.472168,2
2.21730038,0.0273508269,0.00527734281,0.00415969847,0.999603213,0.0103386313,0.0547512037,0.00803955006,0.101233611,-0.536657657,-9.79143197,0.108258669,0.150444828,-0.30731063,-0.121630505,-0.123920463,-0.00753063895,-2.62037659,21.3075333,-45.4194641,2
2.22725838,0.0268787307,0.00470391491,0.00405578809,0.999619339,0.00919966061,0.0538011054,0.00786708205,0.0900860387,-0.527354115,-9.79204631,0.0849895832,0.1417398,-0.404708928,-0.0698770285,-0.10326419,-0.0260031223,-2.70163727,21.2790146,-45.4804077,2
2.23721538,0.0266426868,0.00428527707,0.00389757771,0.99962817,0.00837168062,0.0533242323,0.00757475345,0.0819804919,-0.522684296,-9.79236779,0.0356343084,0.0257395675,-0.364134925,-0.0277827475,-0.0670174807,-0.0290362407,-2.82121277,21.3796921,-45.632782,2
2.24717338,0.0265415546,0.00403095021,0.00377769162,0.999632338,0.0078695858,0.0531190247,0.00734906183,0.0770646263,-0.520674746,-9.79251451,0.0326193719,-0.1287507,-0.253555659,-0.0159295499,-0.0365945883,-0.014555037,-2.88290405,21.3229141,-45.3745422,2
2.25713038,0.02643966,0.00392815838,0.00376289082,0.999635635,0.00766527864,0.0529143043,0.00732563982,0.0750647577,-0.518669946,-9.79263667,0.0172612739,-0.198391698,-0.124445879,-0.0268469546,-0.00449570362,0.0106067974,-2.84830475,21.5415726,-45.6698303,2
2.26708838,0.0262574445,0.00395175023,0.0038730504,0.999639923,0.00770797866,0.0525507742,0.00754627485,0.0754843531,-0.515109879,-9.79282138,0.011454743,-0.147633278,0.0125075994,-0.0466917679,0.0159933269,0.0325168893,-2.84780121,21.4591904,-45.7468872,2
2.27704538,0.0259984276,0.00409215963,0.00409231818,0.999645154,0.00797951252,0.0520353766,0.00797983822,0.0781455443,-0.510062459,-9.79306454,0.030042087,-0.0271347482,0.0149953246,-0.0561806485,0.0427089855,0.0537658781,-2.73744202,21.4343948,-45.4231873,2
2.28700325,0.0257057168,0.00435558533,0.00440789611,0.999650292,0.00849285023,0.0514545545,0.00860027067,0.0831751816,-0.504374184,-9.79331764,0.0561370713,0.154822496,-0.0800707311,-0.0599964261,0.0689333975,0.0680955499,-2.70235443,21.5035477,-45.3156128,2
2.29696125,0.0254302524,0.00476590961,0.00478327392,0.999653695,0.00929741863,0.0509104742,0.00933306612,0.0910570848,-0.499045573,-9.79352047,0.00964865717,0.210845302,-0.135383453,-0.0476297736,0.102960609,0.0768970251,-2.57725525,21.657341,-45.1730652,2
2.30691825,0.0252663233,0.00533684132,0.00517103637,0.999653135,0.0104221978,0.0505918918,0.010081871,0.102074226,-0.495925359,-9.79357074,-0.0320442024,0.130362483,-0.239181681,-0.0135975024,0.128624409,0.0717880204,-2.46911621,21.5391235,-45.3648987,2
2.31687625,0.0253154668,0.00597243303,0.00553322687,0.999646275,0.0116757568,0.0507008368,0.0107742026,0.114350328,-0.496992367,-9.79338077,-0.0637731739,-0.0138686586,-0.355789706,0.036502637,0.127314925,0.0664498657,-2.38466644,21.7559357,-45.4683533,2
2.32683325,0.0256086608,0.00655450001,0.00586072927,0.999633284,0.0128212383,0.0512978629,0.0113966943,0.125564563,-0.502839595,-9.79294472,-0.0788779867,-0.0520148859,-0.366700392,0.0804937929,0.108733527,0.0608308613,-2.35596466,21.5690918,-45.0697327,2
2.33679125,0.0260559074,0.00704479418,0.00613873174,0.999616742,0.0137834999,0.0522020405,0.0119221637,0.134981558,-0.511694663,-9.79236078,-0.0784188905,-0.0187688517,-0.27795068,0.0948312804,0.0910536274,0.0469235294,-2.25991058,21.5650177,-45.1608582,2
2.34674825,0.0264996118,0.00747039692,0.00633436153,0.999600738,0.0146202374,0.0530976501,0.0122853626,0.14316838,-0.520465414,-9.79178269,-0.133891214,-0.018228169,-0.138618197,0.081412673,0.0812137797,0.0281104259,-2.21916962,21.4958038,-45.0552979,2
2.35670625,0.0268317424,0.00782441147,0.00643573358,0.999588562,0.0153197583,0.0537680208,0.0124646217,0.150012529,-0.527030143,-9.79132851,-0.158841522,-0.0492224787,-0.0424053095,0.0506181456,0.0576231889,0.0087473141,-2.12737274,21.6243439,-44.9616089,2
2.36666425,0.0270179067,0.00802926495,0.00643913231,0.99958197,0.0157275675,0.0541430771,0.0124575901,0.154002393,-0.53070284,-9.7910684,-0.0929505978,-0.0468965565,0.0351455477,0.021633897,0.0229925066,-0.00779038388,-2.12520599,21.4669189,-45.223175,2
2.37662125,0.0270637119,0.00805360393,0.00636991372,0.999580939,0.0157795254,0.0542339254,0.0123169885,0.154510343,-0.531592446,-9.79101229,-0.0154973741,-0.0117399395,0.10960896,-0.0050095655,-0.0142798061,-0.0200085007,-2.07752228,21.4833984,-44.9964905,2
2.38657925,0.0269992746,0.00789980124,0.00623744763,0.999584731,0.0154794937,0.0541010622,0.0120610756,0.151573823,-0.53029141,-9.79112861,0.0553746264,-0.0342895154,0.111969844,-0.020652974,-0.0444323793,-0.0297881607,-2.32585907,21.3049927,-44.966095,2
2.39653625,0.0268825087,0.00765288832,0.00608845102,0.999590723,0.014994473,0.0538622409,0.0117778129,0.146826802,-0.527952775,-9.79132734,0.0831658384,0.0163435608,0.126084879,-0.0244490467,-0.052926518,-0.0259671919,-2.31768036,21.3997498,-45.0551147,2
2.40649425,0.0267646226,0.00741638268,0.00597936421,0.999596329,0.0145280987,0.0536220206,0.0115738009,0.142262198,-0.525600439,-9.7915214,0.0983547219,0.0922516923,0.113859019,-0.0213736296,-0.0407446921,-0.0148277227,-2.34571075,21.4505463,-45.1669006,2
2.41645225,0.0266608889,0.00728822666,0.00594922038,0.999600173,0.014274243,0.0534125701,0.0115217481,0.139778126,-0.523549352,-9.79166695,0.0733054656,0.166515783,0.0665694445,-0.0210868474,-0.00661391113,0.00378380227,-2.34571075,21.4505463,-45.1669006,2
2.42640925,0.0265440682,0.00736738355,0.00600927472,0.999602434,0.0144307896,0.0531806395,0.0116393683,0.141312724,-0.521278119,-9.79176632,0.0126640138,0.126535874,0.0446720854,-0.0239545386,0.0368502103,0.0192724802,-2.33631897,21.4734955,-45.2002563,2
2.43636725,0.026431321,0.0075775395,0.00612115696,0.999603171,0.0148468446,0.0529591832,0.0118537834,0.14538834,-0.519109433,-9.79182185,-0.0454307674,0.0142339483,0.00252981074,-0.0188109092,0.0467648916,0.021632839,-2.3330307,21.5359039,-45.2816162,2
2.44632425,0.0263789134,0.00780864629,0.00622399275,0.99960217,0.0153046878,0.0528586515,0.0120481848,0.149872244,-0.518124952,-9.79180607,-0.0481190293,-0.00665233403,-0.0872679491,-0.00185030163,0.0458354503,0.0190146863,-2.32990265,21.5812073,-45.0414734,2
2.45628225,0.0264059409,0.00801580167,0.00631083904,0.999599272,0.0157145341,0.0529165839,0.0122106856,0.153884886,-0.518692267,-9.79171371,-0.0775700733,-0.0322716362,-0.0798790079,0.0120551381,0.0350038297,0.0138173979,-2.38039398,21.5300446,-45.0960388,2
2.46623925,0.0264812142,0.00814619428,0.00636755319,0.999595822,0.0159717266,0.0530696722,0.0123161673,0.156401965,-0.520191456,-9.79159447,-0.115401627,-0.0783572051,-0.0286725523,0.0175348576,0.0182120688,0.00776323304,-2.20183563,21.6178589,-44.9692688,2
2.47619725,0.0265678242,0.00824167556,0.00639317638,0.999592567,0.0161605341,0.0532445344,0.0123610483,0.158249219,-0.52190385,-9.79147347,-0.102434758,-0.0767944128,0.00741933635,0.0161138736,0.021216331,0.000389957801,-2.17664337,21.6269684,-45.1155396,2
2.48615525,0.0266387859,0.00835436215,0.00637395651,0.999589852,0.0163863615,0.0533875784,0.012315442,0.160459168,-0.52330462,-9.791363,-0.106440358,-0.110558516,0.0493564438,0.0104384096,0.0225351285,-0.00818515383,-2.2829361,21.5317535,-45.1398621,2
2.49611225,0.0266635438,0.00845393858,0.00634009587,0.999588605,0.0165872596,0.0534377759,0.0122419314,0.16242581,-0.523796203,-9.79130455,-0.0687530356,-0.0913622327,0.0416664739,-6.34994358E-05,0.0187089648,-0.00602985825,-2.20337677,21.4818573,-45.0724792,2
2.50607025,0.0266021878,0.00856085384,0.00633955735,0.999589321,0.0168020488,0.0533163259,0.012236125,0.164529925,-0.522606883,-9.7913326,0.00979751845,-0.0530472247,0.0487274983,-0.0215075389,0.0256848503,0.00517166359,-2.28728485,21.5520172,-45.2912903,2
2.51602725,0.0264379732,0.00870195494,0.00637400203,0.999592173,0.0170845914,0.0529901103,0.0123002559,0.167299298,-0.519412289,-9.79145594,0.0408462435,-0.0372378072,0.0126385323,-0.0394003876,0.0332829878,0.00543777924,-2.17740631,21.3479919,-45.160675,2
2.52598525,0.0262475386,0.00884631018,0.00639020665,0.99959583,0.0173749289,0.0526111872,0.0123282299,0.170145518,-0.515701525,-9.79160265,0.00657612699,-0.0354120166,-0.104680272,-0.0344224088,0.0282109976,-0.000926643377,-2.26839447,21.5487976,-45.504364,2
2.53594225,0.0261567135,0.00898107966,0.0063891109,0.999597011,0.0176458478,0.0524311266,0.0123204833,0.172799886,-0.513938168,-9.79164883,-0.0334876427,0.014000724,-0.281804433,-0.00212757918,0.0291300416,-0.00244317809,-2.27441406,21.5218048,-45.310791,2
2.54590025,0.0262520002,0.0091293404,0.00638946361,0.999593223,0.017941579,0.0526235908,0.0123117559,0.1756938,-0.515822995,-9.79149861,-0.0214177771,0.0769376572,-0.423213137,0.0374677666,0.0325370245,0.00178618776,-2.21012115,21.4022064,-45.1114502,2
2.55585825,0.0265134368,0.0093128733,0.00641636858,0.999584463,0.0183046356,0.0531493684,0.012351327,0.179243656,-0.520971903,-9.79116134,-0.0222741747,0.0913640958,-0.423999319,0.0637268424,0.042043373,0.00643418077,-2.24573517,21.2544861,-45.0819397,2
2.56581525,0.0268684766,0.00952398381,0.00646532097,0.999572672,0.0187206431,0.0538631823,0.0124316755,0.183309827,-0.527962017,-9.79071184,0.00672956398,0.0467292371,-0.379707173,0.0752452835,0.0439294241,0.0111186812,-2.11355591,21.3046722,-45.1102905,2
2.57577325,0.0272467173,0.00973288787,0.00653073563,0.999560039,0.0191310286,0.0546237454,0.0125443848,0.187320049,-0.535409593,-9.79023136,0.0178327399,0.052381162,-0.363877151,0.0733544305,0.0388519354,0.0132209789,-2.0450058,21.4168243,-45.0222778,2
2.58573025,0.0275895937,0.00991275843,0.0065998975,0.999548353,0.0194834143,0.0553133136,0.0126665657,0.190762737,-0.542161734,-9.78979356,-0.0210740417,0.0687101463,-0.263758488,0.0632948801,0.0331343971,0.0131874233,-2.04953003,21.4923553,-45.2397766,2
2.59568825,0.0278916632,0.0100428068,0.00665371967,0.999538397,0.019737307,0.0559203608,0.012761369,0.193241768,-0.548105628,-9.78941362,-0.0801160863,0.0350000382,-0.162534495,0.058723785,0.0200127102,0.00852371939,-1.9803772,21.4472046,-45.1236572,2
2.60564525,0.028189768,0.0100637201,0.0066895727,0.99952948,0.019773674,0.0565177361,0.0128262933,0.193591257,-0.553954646,-9.78907752,-0.0765750162,0.011968999,-0.08386194,0.0585770458,-0.0110687762,0.00730878487,-1.98430634,21.4401093,-45.3808899,2
2.61560325,0.0284529371,0.009942113,0.00673803257,0.999523008,0.0195243034,0.0570436426,0.0129252554,0.19114443,-0.5591037,-9.78883319,-0.00768911146,0.00305215411,0.0116617962,0.0432159305,-0.0344018787,0.0140706841,-2.0644989,21.4710083,-45.4107666,2
2.62556125,0.0285743849,0.00972497068,0.00681278641,0.999521177,0.0190837464,0.0572852401,0.0130851154,0.186829289,-0.561469114,-9.78878117,-0.00906016236,-0.0230136132,0.151969262,0.0017017778,-0.0494303629,0.0194792971,-2.0230484,21.2688293,-45.3801575,2
2.63551825,0.0284733412,0.00945908228,0.0069223374,0.999525806,0.0185462575,0.0570816298,0.0133215367,0.181570016,-0.559475638,-9.78899393,-0.0325313283,-0.0938403863,0.261717338,-0.0411309078,-0.05739801,0.025862895,-1.92989349,21.3034058,-45.2454224,2
2.64547625,0.0282092752,0.0091016135,0.00705573686,0.999535723,0.0178261403,0.0565509306,0.0136136045,0.174526016,-0.55427964,-9.78941771,0.0102760592,-0.0885617518,0.217249835,-0.0640945435,-0.0824991092,0.029996654,-1.87885284,21.3695831,-45.230896,2
2.65543325,0.0278727195,0.00864194145,0.00718738389,0.99954822,0.0169025909,0.0558735473,0.0139086773,0.165491244,-0.54764729,-9.78994787,-0.0384492836,0.0288554345,0.203714062,-0.0706261247,-0.0951214731,0.0264510084,-2.09661102,21.4985809,-45.4217224,2
2.66539125,0.0275520123,0.00819351262,0.00727475281,0.999560329,0.0160040345,0.0552270783,0.0141135989,0.156699998,-0.541317356,-9.79044472,-0.0911590748,0.0594860621,0.102906248,-0.0581968874,-0.0805481225,0.0128494464,-2.16844177,21.6082001,-45.6114197,2
2.67534825,0.0273251941,0.00783756008,0.00731580844,0.999569114,0.0152920789,0.0547688933,0.0142187852,0.149733365,-0.536830895,-9.79080069,-0.101700041,-0.00710000473,-0.0315612594,-0.0348104276,-0.0610713921,0.0075021293,-2.24578094,21.437851,-45.3658752,2
2.68530625,0.0272331059,0.00758209803,0.00735182723,0.999573244,0.0147798459,0.0545815496,0.0143062035,0.144719665,-0.534996409,-9.79097663,-0.0467073906,-0.0180623474,-0.0795686268,-0.00319977244,-0.0401400141,0.0106380014,-2.12562561,21.4026184,-45.5417786,2
2.69526425,0.0273023495,0.00743859162,0.00740938242,0.999572013,0.0144884199,0.0547188616,0.0144283353,0.141865244,-0.536340992,-9.79094448,0.0264767136,0.0127607704,-0.172825003,0.0302371457,-0.0150140123,0.0130929686,-2.09702301,21.508606,-45.3240356,2
2.70522125,0.0275349593,0.00745119945,0.00747593918,0.999565085,0.0145068104,0.0551853835,0.0145577136,0.14204166,-0.540909104,-9.7906908,0.0376727555,0.0379788714,-0.194776138,0.0600363202,0.0202837922,0.0132799223,-2.17589569,21.3769836,-45.5185547,2
2.71517925,0.0278628488,0.00763932309,0.00755021969,0.999554033,0.0148748278,0.0558452258,0.0146914292,0.145639456,-0.547369971,-9.79027871,0.0173155477,0.0402498851,-0.183516492,0.0704975277,0.0532073006,0.0149285318,-2.15688324,21.4969101,-45.5158081,2
2.72513625,0.0282225901,0.00794792059,0.00761750389,0.999540965,0.0154839602,0.0565705247,0.0148036135,0.151596812,-0.554471473,-9.78978888,-0.033682736,0.0626144597,-0.11292846,0.0737085044,0.0681854561,0.00877050497,-2.21261597,21.1869888,-45.2904053,2
2.73509425,0.0285714747,0.00828487599,0.0076488417,0.999528157,0.0161520421,0.057274034,0.0148419235,0.158130816,-0.56135937,-9.78929262,-0.0515892079,0.0701009065,-0.0824497351,0.0675548762,0.0655490533,0.00128695625,-2.07324219,21.4424057,-45.6149292,2
2.74505125,0.0288778284,0.00859511325,0.00765399245,0.999516702,0.0167687336,0.0578916489,0.0148295561,0.164161913,-0.567406066,-9.78884488,-0.0487916678,0.0788410797,-0.0519224949,0.0531935096,0.0606317893,-0.000292564509,-2.12947845,21.2313004,-45.6442566,2
2.75500925,0.0290910194,0.00890006162,0.00766334525,0.999507766,0.0173759094,0.0583228673,0.0148270752,0.170101167,-0.571627739,-9.78849767,-0.0361758954,0.0546316078,0.0113268652,0.0319962129,0.0602019131,0.00155719998,-2.08043671,21.3504105,-45.5655212,2
2.76496725,0.0291929108,0.00916744727,0.00767426629,0.999502307,0.0179093255,0.0585308844,0.0148315859,0.175320363,-0.573664213,-9.78828666,-0.0624939569,0.00728767279,0.0842880565,0.011400125,0.0452541225,-0.00138133205,-2.03151703,21.1325455,-45.5340271,2
2.77492425,0.0292243733,0.0093489264,0.00765561467,0.999499846,0.0182734171,0.0585961828,0.0147830475,0.178883499,-0.574303461,-9.78818495,-0.0873056507,-0.0468404059,0.118303723,0.00436125509,0.0293358341,-0.00965344347,-2.03151703,21.1325455,-45.5340271,2
2.78488225,0.0292623408,0.00942189655,0.00758055208,0.999498657,0.0184234381,0.058671843,0.0146277805,0.180351124,-0.57504416,-9.78811423,-0.0676743552,-0.0191649749,0.0630167204,0.011761114,0.000861848472,-0.0216714907,-2.00041962,21.1736679,-45.3650818,2
2.79483925,0.0293480675,0.00937889872,0.00745569594,0.999497362,0.0183435207,0.0588404314,0.0143787702,0.179567097,-0.576694594,-9.78803181,-0.0649450581,0.0104676545,0.0421346759,0.0186089929,-0.0176081248,-0.02574737,-1.96984863,21.227272,-45.5289612,2
2.80479725,0.0294330134,0.00928503106,0.00733540267,0.999496615,0.0181615132,0.0590068493,0.0141419306,0.177783849,-0.578323766,-9.7879681,-0.0303911745,-0.00122088356,0.108958972,0.0151210502,-0.020325616,-0.0209036097,-2.06571198,21.1667557,-45.4482117,2
2.81475525,0.0294910346,0.0091851255,0.00723878895,0.999496604,0.0179663981,0.059119789,0.0139533617,0.175872901,-0.579429425,-9.78793712,0.00369187679,-0.0271996667,0.12778233,0.00815834291,-0.019182533,-0.0166514106,-2.08896637,21.0416183,-45.4686584,2
2.82471225,0.0294968474,0.00909538398,0.00716639658,0.999497795,0.0177908885,0.0591288787,0.0138136041,0.174154936,-0.579518382,-9.78796284,0.0274065509,-0.0293552008,0.0990776293,-0.00544268638,-0.016629627,-0.00990109611,-2.09856415,21.1565475,-45.4818115,2
2.83467025,0.0294241309,0.00902957794,0.00714442073,0.999500653,0.0176613299,0.058982091,0.0137747197,0.172888314,-0.578081408,-9.7880698,0.0147568762,0.00347479997,0.0900572875,-0.0228981022,-0.00505181076,0.000468856189,-2.12806702,21.0959396,-45.4885559,2
2.84462725,0.0292946576,0.00908199324,0.00715809871,0.999503863,0.017767146,0.0587240124,0.0138012142,0.173926698,-0.575554886,-9.78820074,-0.0311727716,0.0326714492,0.0442488916,-0.0270020328,0.028204415,0.00310405437,-2.13340759,21.0353317,-45.4937439,2
2.85458525,0.0291868868,0.00927961859,0.00717382498,0.999505062,0.0181633683,0.0585114036,0.0138229571,0.177807193,-0.573473513,-9.78825276,-0.05271054,0.0522875289,-0.0610433745,-0.0146373324,0.0480912738,-0.000126316212,-2.04375458,21.2474442,-45.5446167,2
2.86454225,0.0291475565,0.0095096552,0.00716463389,0.999504223,0.0186250837,0.0584357294,0.0137917746,0.182327374,-0.572732668,-9.78821301,-0.0668075093,0.0690542835,-0.15236206,9.31443647E-05,0.0447540656,-0.0068939412,-2.04666138,21.1337967,-45.26651,2
2.87450025,0.0291772858,0.00972377917,0.00712513295,0.999501578,0.0190558272,0.0584974097,0.013699597,0.186542891,-0.573336515,-9.78809844,-0.0463328217,0.0280588408,-0.235226806,0.0124515016,0.0367934145,-0.00928623602,-2.05062103,21.0515976,-45.3878174,2
2.88445825,0.0292440267,0.00985667097,0.00708024102,0.999498614,0.0193237541,0.0586318908,0.0136006741,0.189163887,-0.574653041,-9.78797102,-0.0591291566,-0.0614546222,-0.191809689,0.0147868274,0.0172338318,-0.00873442926,-2.01555634,21.1955795,-45.3940735,2
2.89441525,0.0293100464,0.00991770198,0.00705132903,0.999496281,0.0194468541,0.0587642459,0.0135379586,0.190367308,-0.57594878,-9.78787165,0.00640579366,-0.0902360782,-0.091203535,0.0120738689,0.00839382038,-0.00105134165,-2.06635284,21.3025284,-45.5734558,2
2.90437325,0.0293457615,0.0099422975,0.0070749755,0.999494863,0.0194942743,0.0588364989,0.0135831956,0.190830633,-0.576656125,-9.7878208,0.0538264837,-0.038801586,0.0187298349,0.000662490493,0.00389201241,0.00907426327,-2.03813934,21.0907516,-45.5846863,2
2.91433025,0.0293120661,0.00998269243,0.00714712525,0.999494958,0.0195713451,0.0587710467,0.013725933,0.191585726,-0.576015343,-9.78784359,0.0517246708,0.0555775103,0.134123224,-0.0138525842,0.0158231407,0.0176400766,-1.93093109,21.0332718,-45.5511169,2
2.92428825,0.0292248306,0.0101037929,0.00725501912,0.999495484,0.0198086322,0.058600312,0.0139365269,0.193910205,-0.574343902,-9.7878962,0.0502980173,0.132765124,0.137168583,-0.0207294002,0.0362115055,0.0235584192,-2.08418274,21.0495224,-45.4393921,2
2.93424625,0.0291073519,0.0103195877,0.00740078657,0.999495522,0.0202337675,0.0583712233,0.0142180475,0.19807401,-0.572101165,-9.78794413,0.0732186001,0.137854592,0.0176560682,-0.0231571402,0.0558516979,0.0328106396,-1.86426544,21.2083206,-45.4512634,2
2.94420325,0.0290051058,0.0106484638,0.00760071696,0.99949361,0.0208820655,0.0581755169,0.0146012355,0.204421808,-0.570185175,-9.78792543,0.118944688,0.132197663,-0.153548055,-0.015746627,0.0808238909,0.0431466326,-1.774086,21.4036484,-45.4933472,2
2.95416125,0.0289627754,0.0110986211,0.0078471602,0.999488032,0.0217697797,0.0581027664,0.0150693905,0.213111512,-0.569472935,-9.78778163,0.105017669,0.101109026,-0.324877266,0.0010428275,0.107212923,0.0497229993,-1.78765106,21.3432083,-45.5670471,2
2.96411825,0.0290272907,0.0116936136,0.00813360421,0.999477034,0.0229437233,0.0582473742,0.0156069337,0.224599778,-0.570888684,-9.78744203,0.0704851931,0.0639182724,-0.411706824,0.0258365907,0.134830698,0.0585918613,-1.75895691,21.4255447,-45.4337463,2
2.97407625,0.0292083508,0.0123944899,0.00846685656,0.999460658,0.0243251938,0.0586286616,0.0162291304,0.238115312,-0.574621441,-9.78690427,0.00399796533,0.0501434295,-0.442471965,0.0473538712,0.150098413,0.0647566766,-1.7080307,21.3922806,-45.4838867,2
2.98403325,0.029494602,0.0131420044,0.00879905421,0.999439754,0.025798318,0.0592220416,0.016843336,0.252523539,-0.580430419,-9.7862005,-0.0850794261,0.0360506433,-0.393645682,0.068769142,0.14762035,0.0594567209,-1.69841003,21.231514,-45.6008911,2
2.99399125,0.0298883752,0.0138101945,0.00907635654,0.999416628,0.0271138739,0.0600286159,0.0173487115,0.265384829,-0.588326141,-9.7853886,-0.129813507,0.00234703805,-0.296295315,0.0885169804,0.120798923,0.0453949869,-1.68125153,21.1742935,-45.6392822,2
3.00394925,0.0303492562,0.0142869884,0.00926918465,0.999394196,0.0280498216,0.0609643554,0.0176937318,0.274527756,-0.597485818,-9.78458138,-0.147635415,-0.0273990252,-0.133997552,0.0951367989,0.071528852,0.0279273111,-1.5085907,21.1902847,-45.7559204,2
3.01390625,0.0307959434,0.0145295773,0.00938865574,0.999375901,0.0285211761,0.06186573,0.0179058988,0.279124272,-0.606308628,-9.78390859,-0.144301156,-0.0547884788,0.0526759437,0.0796683058,0.0272776708,0.0185052007,-1.45449066,21.1617966,-45.7077332,2
3.02386425,0.0311191006,0.0145953789,0.00945723543,0.999364343,0.0286434638,0.0625154152,0.0180302538,0.280309372,-0.612667532,-9.78347838,-0.0920656134,-0.123697326,0.249617735,0.047476545,0.00299576856,0.0107258409,-1.51131439,21.1701889,-45.6759644,2
3.03382125,0.0312537865,0.0145670337,0.00949597859,0.999360198,0.0285820576,0.0627854792,0.0181059187,0.279703862,-0.615310777,-9.78332991,-0.0591383811,-0.134371865,0.382796371,0.00942423847,-0.0151614929,0.0063505359,-1.53218842,21.1975937,-45.5010376,2
3.04377925,0.0312369553,0.0144542972,0.00950943999,0.999362199,0.0283556649,0.0627501418,0.0181404292,0.277489602,-0.614964886,-9.78341467,-0.0952313657,-0.163448102,0.438396678,-0.0113923606,-0.0300988965,0.000238314504,-1.6026001,21.0814743,-45.6280823,2
3.05373625,0.0311629134,0.0142686059,0.00950216629,0.999367262,0.0279853839,0.0625984308,0.0181395268,0.273869585,-0.613480054,-9.7836099,-0.108670017,-0.124081941,0.41165714,-0.0184083227,-0.0462724976,-0.00188335893,-1.70603943,21.0108109,-45.6543274,2
3.06369425,0.0310493578,0.0140008416,0.00948100546,0.999374834,0.0274522308,0.0623657984,0.0181169328,0.268657293,-0.611203159,-9.7838969,-0.115728009,-0.0145795468,0.39383799,-0.0289967861,-0.0585480742,-0.00502242707,-1.75098419,20.9968033,-45.4925842,2
3.07365225,0.030869209,0.0137065588,0.00944126394,0.999384885,0.0268682154,0.0619989679,0.0180603714,0.262949309,-0.607612733,-9.78427567,-0.122140671,0.0144510616,0.369376918,-0.0434160307,-0.0582594164,-0.00785119273,-1.63783264,21.1081467,-45.4607239,2
3.08360925,0.0306147917,0.0134319496,0.00941005826,0.999396627,0.0263242919,0.0614841607,0.0180213542,0.257635567,-0.602573825,-9.78472868,-0.129396506,-0.0588226297,0.29501112,-0.0599454716,-0.0514830016,-0.00191846839,-1.63053894,21.1213608,-45.480072,2
3.09356725,0.0302794567,0.0132223021,0.00943007227,0.999409468,0.0259086946,0.0608099967,0.0180826857,0.253579496,-0.595974902,-9.78523838,-0.060996284,-0.0745494104,0.162044665,-0.071667105,-0.0296444613,0.00900541991,-1.62534332,21.1196518,-45.4781189,2
3.10352425,0.0299506237,0.0131370047,0.00950796814,0.999419786,0.0257386136,0.060152573,0.0182520025,0.251925245,-0.589539572,-9.78567092,-0.0084652104,-0.0805358644,0.00610533114,-0.058540117,-0.00322723575,0.0197243765,-1.61344147,21.1320877,-45.4750061,2
3.11348225,0.0297425908,0.013189334,0.00962071347,0.999424178,0.0258401558,0.0597402383,0.0184797937,0.252925161,-0.585503192,-9.78588778,-0.0387940968,-0.0815794917,-0.165012868,-0.0230563786,0.0247117337,0.0253474861,-1.5442276,21.2954025,-45.5201416,2
3.12344025,0.0297128376,0.0133665162,0.00976807917,0.999421266,0.0261867069,0.0596878486,0.0187650538,0.256317251,-0.584990347,-9.78582991,-0.0797452437,-0.0735629931,-0.245126853,0.0120560667,0.0482700579,0.0346837267,-1.54351807,21.2950974,-45.52005,2
3.13339725,0.0298313009,0.0136706027,0.00996473909,0.999411736,0.0267818851,0.0599358306,0.0191376606,0.262137628,-0.587417867,-9.78553064,-0.0468094628,-0.0940300271,-0.193202605,0.0338228792,0.0757743046,0.0426451191,-1.53623199,21.2202988,-45.7068176,2
3.14335525,0.0300012813,0.0140645524,0.0102016726,0.99939875,0.0275536075,0.0602899677,0.0195839999,0.269683513,-0.590884484,-9.7851168,-0.0423843581,-0.106275322,-0.082286069,0.0326356404,0.0800593272,0.0457343832,-1.46748352,21.2487259,-45.6124878,2
3.15331225,0.0301016445,0.0143879695,0.010422099,0.99938885,0.0281862073,0.0605033083,0.0200031887,0.275869965,-0.592972834,-9.78481811,-0.0729617393,-0.087277959,0.0716916098,0.00517401658,0.0493044592,0.0392483436,-1.4787674,21.1902542,-45.6321716,2
3.16327025,0.0300118994,0.0145358705,0.0105916157,0.999387716,0.0284738374,0.0603315574,0.0203361618,0.278687269,-0.591291603,-9.78483973,-0.0968779273,-0.0850685759,0.190375857,-0.0432417206,0.0114851743,0.0275259055,-1.5215683,21.1611252,-45.6159668,2
3.17322725,0.0296890069,0.0144867625,0.0107009153,0.999396928,0.0283749832,0.0596876824,0.0205668008,0.277730735,-0.584988703,-9.78524598,-0.134976808,-0.0767069902,0.233279179,-0.0876219571,-0.0292029604,0.015811462,-1.53785706,21.1617966,-45.654541,2
3.18318525,0.0291808279,0.0142266279,0.0107684727,0.999414861,0.0278596694,0.0586675528,0.0207312031,0.272704706,-0.575002184,-9.78597897,-0.157484098,-0.0866935467,0.159791918,-0.116171576,-0.0717570782,0.0103053767,-1.4826355,21.1736221,-45.6687317,2
3.19314325,0.0285841767,0.0137869918,0.0108078745,0.9994378,0.0269884339,0.0574658529,0.0208513448,0.264197172,-0.563237402,-9.78689667,-0.109472219,-0.0677826196,0.024539398,-0.123846717,-0.101455726,0.00549592823,-1.57170105,21.1091995,-45.7239075,2
3.20310025,0.0280005618,0.0132690907,0.0108193781,0.999461247,0.0259620153,0.0562877976,0.0209186673,0.254168621,-0.551703287,-9.78781904,-0.090166173,-0.0574696077,-0.0954454103,-0.111181259,-0.0991305187,0.00249907351,-1.51741791,21.3708115,-45.3614807,2
3.21305825,0.0275128769,0.0128078787,0.0108228111,0.999480729,0.0250478308,0.0553026,0.0209632005,0.245234131,-0.542056849,-9.78858594,-0.0607313129,-0.0651707932,-0.201819042,-0.0856723934,-0.0813609287,0.00242914585,-1.60034943,21.261467,-45.4076843,2
3.22301525,0.0271685084,0.0124885514,0.0108415113,0.99949409,0.0244141852,0.0546074523,0.0210263515,0.239040738,-0.535250055,-9.78911376,-0.0478042094,-0.0490830337,-0.278354585,-0.0495250374,-0.042073708,0.00554610929,-1.62523651,21.2604904,-45.5105286,2
3.23297325,0.0270513779,0.0123642735,0.0108679998,0.999498505,0.0241662172,0.0543711584,0.0210888828,0.236616397,-0.532936262,-9.78929905,-0.0419382217,-0.0346374155,-0.395335535,0.00225964282,-0.00967181101,0.00501545239,-1.64313507,21.3491898,-45.4498596,2
3.24293125,0.0271883353,0.0123558251,0.0108784573,0.99949477,0.0241460159,0.0546452146,0.0211071247,0.236415102,-0.535619839,-9.7891576,-0.0716644295,-0.0517060026,-0.482266799,0.0505259745,0.00534069445,0.000758656068,-1.63660431,21.2577133,-45.5084229,2
3.25288825,0.0275097638,0.0124127057,0.0108848896,0.999485206,0.0242531848,0.055289591,0.0211094533,0.237455771,-0.54192946,-9.78878526,-0.102483017,-0.0840028463,-0.365922393,0.075371474,0.018469315,0.00360912317,-1.55434418,21.3866959,-45.5381165,2
3.26284625,0.0278845008,0.0125316401,0.0109265252,0.999472775,0.0244815822,0.0560427853,0.0211774807,0.239681429,-0.549304336,-9.78831939,-0.0684963757,-0.0773761947,-0.183380883,0.0719799399,0.0260992702,0.0130087491,-1.65705109,21.3503342,-45.5912476,2
3.27280325,0.0281788994,0.0126509666,0.0110120734,0.99946207,0.0247098368,0.0566363826,0.0213351437,0.241907562,-0.55511631,-9.78793712,-0.0171522286,-0.0802432015,-0.0136252052,0.044738166,0.0222609304,0.0213210322,-1.66722107,21.2920151,-45.3857117,2
3.28276088,0.0283096597,0.0127406732,0.0111163188,0.999456147,0.0248809229,0.0569024879,0.0215356956,0.243578455,-0.557721707,-9.78774773,-0.00296155322,-0.058484155,0.144501994,0.00818121713,0.0156661421,0.0205479171,-1.628685,21.2632217,-45.637207,2
3.29271788,0.028277023,0.0127859489,0.01120473,0.999455541,0.0249672133,0.0568403828,0.0217109273,0.244423911,-0.557113622,-9.78776118,-0.0530377627,-0.0572965892,0.176687523,-0.0210203957,0.000229209429,0.0148363877,-1.53759003,21.2291336,-45.6640625,2
3.30267588,0.0281367945,0.0127174803,0.0112854486,0.99945948,0.0248283899,0.0565603689,0.0218797701,0.243068989,-0.554372068,-9.78795056,-0.0717342981,-0.0751515775,0.155029818,-0.0359058715,-0.0234263185,0.0183549561,-1.64964294,21.2077255,-45.4765625,2
3.31263388,0.0279260326,0.0125477659,0.0113788178,0.999466452,0.0244876301,0.0561373034,0.0220812505,0.23973937,-0.550229781,-9.7882662,-0.0630177068,-0.0566985868,0.117187871,-0.0500199907,-0.0418136492,0.0195703804,-1.68051147,21.2613449,-45.4742126,2
3.32259088,0.0276605699,0.0122854784,0.0114635165,0.99947618,0.0239632343,0.055602477,0.0222716341,0.234613423,-0.544993122,-9.78868355,-0.0406834359,-0.0281171469,0.0116617962,-0.0570315607,-0.0605540462,0.0156241078,-1.73101807,21.2486191,-45.3677673,2
3.33254888,0.0273870737,0.0119566062,0.0115282161,0.999486929,0.0233069081,0.055049521,0.0224255376,0.228195793,-0.539578769,-9.7891348,-0.0415980483,-0.0191662901,-0.00434708929,-0.0541271754,-0.0689445212,0.0137403421,-1.6340332,21.2626724,-45.4558105,2
3.34250588,0.0271443417,0.0116110923,0.0115953035,0.999496824,0.0226165825,0.0545576965,0.0225841071,0.221444017,-0.534762856,-9.78955449,-0.0400835886,-0.0188944874,-0.0440302804,-0.0453640409,-0.066036351,0.0168477185,-1.69132233,21.2365494,-45.4232483,2
3.35246388,0.0269601179,0.0113153765,0.0116829114,0.999504182,0.0220236869,0.0541844041,0.0227795084,0.21564419,-0.531107512,-9.78988299,-0.0356304999,-0.0123744745,-0.0321796836,-0.0306297,-0.0509372503,0.0219714418,-1.66274261,21.3175583,-45.3681335,2
3.36242088,0.0268418325,0.0110727679,0.0117807604,0.999508877,0.0215352133,0.0539443501,0.0229909886,0.210864792,-0.528756821,-9.79011446,-0.0613771913,-0.00769219847,-0.0756423932,-0.0178539846,-0.043265745,0.0202300008,-1.65184021,21.339119,-45.2616577,2
3.37237888,0.026766878,0.0108949298,0.0118780518,0.999511754,0.0211755539,0.053792378,0.023196889,0.207345368,-0.527268665,-9.79026994,-0.0895809205,-0.0129213313,-0.0624690234,-0.0148865078,-0.027765207,0.0209360495,-1.76657104,21.2402725,-45.243988,2
3.38233688,0.0266879964,0.0107886847,0.0119854183,0.999513713,0.0209588135,0.0536343613,0.0234191369,0.205225161,-0.525721289,-9.79039737,-0.0923987544,-0.0226987751,-0.0114642278,-0.0211460013,-0.0160896424,0.0224473923,-1.73495483,21.3141556,-45.4233093,2
3.39229388,0.0265607118,0.0107375547,0.0121093017,0.999516137,0.0208526674,0.0533811171,0.0236724182,0.20418873,-0.523241345,-9.79055227,-0.0657742938,-0.0592960194,0.0519873769,-0.031989295,0.000326286769,0.0284958072,-1.70840454,21.2756271,-45.3995361,2
3.40225188,0.0263716545,0.0108096965,0.0122655946,0.999518479,0.0209930812,0.0530079071,0.0239852236,0.205567526,-0.519586586,-9.79071769,-0.044707449,-0.100809129,0.0741495243,-0.0440443605,0.0319025889,0.0357412025,-1.75653839,21.3540421,-45.3269043,2
3.41220888,0.0261493737,0.0110362446,0.0124861739,0.999519176,0.0214401283,0.052573417,0.0244193214,0.209949248,-0.515331632,-9.79084979,-0.010632307,-0.0838155801,0.0531827241,-0.0436733738,0.0595602207,0.0502053648,-1.77812195,21.3473892,-45.3471375,2
3.42216688,0.0259470769,0.0113566526,0.0127812702,0.999517128,0.0220708973,0.0521830804,0.0249974801,0.216129398,-0.511508968,-9.79091584,-0.0160642507,-0.0291299041,0.0120984341,-0.035241276,0.0694093853,0.0640852302,-1.78850555,21.3848953,-45.3464661,2
3.43212488,0.0257898367,0.0116900948,0.013134552,0.999512662,0.0227238525,0.0518849012,0.0256907254,0.222525821,-0.508588806,-9.79092461,-0.0652570467,0.00491038573,-0.0344300929,-0.0272445679,0.068963781,0.0735454187,-1.68132019,21.3771286,-45.3312378,2
3.44208188,0.0256532397,0.0119713233,0.0135181043,0.999507766,0.0232703981,0.0516278159,0.0264470114,0.227880023,-0.506071051,-9.79093162,-0.130615928,-1.53436996E-06,-0.0333750309,-0.0296153128,0.047118403,0.0757281482,-1.61965179,21.4622116,-45.3284912,2
3.45203988,0.0254815468,0.0121356532,0.0139158294,0.999504776,0.023583299,0.0512981063,0.0272386005,0.230947521,-0.50284197,-9.79102631,-0.139968187,-0.0346545493,-0.0124812959,-0.0419460423,0.0243960135,0.0833659768,-1.65419006,21.5553207,-45.151947,2
3.46199688,0.0252303348,0.012173392,0.0143617513,0.999504294,0.02364272,0.0508071741,0.0281349992,0.231535112,-0.498033839,-9.79125837,-0.0317692579,-0.0411086938,0.0405728334,-0.0585535131,-0.00220843265,0.0925091431,-1.67596436,21.5897751,-45.1756287,2
3.47195488,0.0249126661,0.0121144688,0.0148210429,0.999506284,0.0235102696,0.0501808883,0.0290645166,0.230245547,-0.491899903,-9.79159856,0.00199168527,-0.0261437279,0.103012631,-0.0703135431,-0.0143345315,0.0893783569,-1.67596436,21.5897751,-45.1756287,2
3.48191288,0.0245555097,0.0119973403,0.0152551873,0.999509972,0.0232642857,0.0494731763,0.0299473347,0.227845007,-0.48496824,-9.79200071,0.00304548691,0.017801395,0.136185417,-0.0777126029,-0.0280458163,0.0823689178,-1.54963684,21.5723801,-45.1690979,2
3.49186988,0.0241617414,0.0117733954,0.0156255593,0.999516536,0.0228093297,0.0486872848,0.0307082877,0.223398677,-0.477270562,-9.79248119,0.00270341374,0.0529000713,0.133074591,-0.0848557949,-0.0584766045,0.0654754415,-1.55580139,21.4623184,-45.2006531,2
3.50182788,0.0237310505,0.0113859226,0.0158974128,0.999527033,0.0220335186,0.0478198897,0.031280241,0.215810541,-0.468774208,-9.79306162,-0.0461218458,0.101714956,0.0655704965,-0.0905429795,-0.0894148126,0.0440215468,-1.5565567,21.6643753,-44.9475403,2
3.51178488,0.0232878394,0.0108633256,0.0160580526,0.999540675,0.0209934017,0.0469203873,0.0316354741,0.205633266,-0.459963015,-9.79369875,-0.0664706055,0.0836261951,-0.0772954211,-0.0915794149,-0.117324382,0.02311638,-1.68320465,21.560936,-45.0734558,2
3.52174288,0.0228454945,0.0102062398,0.0161316405,0.999556723,0.0196884727,0.0460162602,0.031821696,0.192861116,-0.45110612,-9.79437036,-0.0557933998,0.0454403298,-0.203815769,-0.0901082903,-0.142670751,0.0105065778,-1.56646729,21.7311478,-45.0460815,2
3.53169988,0.0224289334,0.009460865,0.0161517937,0.999573146,0.0182086875,0.0451596871,0.0319033367,0.178374307,-0.442714724,-9.79502795,-0.0721319374,0.0300159662,-0.241615046,-0.0824260563,-0.147982389,0.00472547486,-1.70872498,21.6531067,-45.0226746,2
3.54165788,0.0220603012,0.00875024418,0.0161556274,0.99958778,0.0167978218,0.0443997327,0.0319487847,0.164560283,-0.435269595,-9.79560312,-0.0876469019,0.0108991413,-0.290270063,-0.0671230033,-0.132896647,0.00374543131,-1.65135956,21.925354,-45.2472839,2
3.55161588,0.0217874948,0.0081499318,0.0161705459,0.99959859,0.0156043115,0.0438351128,0.0320091853,0.152872823,-0.429737936,-9.79603684,-0.077156515,0.0323022505,-0.282803965,-0.0440342687,-0.103901699,0.00640251487,-1.66323853,21.8526306,-45.2469482,2
3.56157288,0.0216567771,0.00772941049,0.016202326,0.99960426,0.0147654657,0.0435606571,0.0320929875,0.144657139,-0.427049026,-9.79627941,-0.0960252378,0.0951545742,-0.253681331,-0.0106773749,-0.0619443953,0.0093873851,-1.70045471,21.9374542,-45.2212219,2
3.57153088,0.0217109703,0.00750644048,0.0162414529,0.999604145,0.0143158349,0.0436624545,0.0321803212,0.14025179,-0.428046366,-9.79629987,-0.11960212,0.114258065,-0.244981892,0.031275399,-0.029216541,0.0061969189,-1.84013367,21.8903046,-45.2228088,2
3.58148788,0.0219471893,0.00743751519,0.0162619604,0.999599156,0.0141695298,0.044133006,0.0322213624,0.138815674,-0.432656454,-9.7961175,-0.161710556,0.0822070124,-0.167651399,0.0620277189,0.00084894849,0.00279020309,-1.80402374,22.0793304,-45.4715271,2
3.59144588,0.0223025747,0.00751968029,0.0162903722,0.9995902,0.0143214516,0.0448468985,0.0322700172,0.140299456,-0.439650441,-9.79578549,-0.167384182,0.0449081957,-0.079548753,0.0796067417,0.0265825726,0.00997045822,-1.75731659,21.8628845,-45.4882202,2
3.60140388,0.0227182574,0.00768655653,0.0163629091,0.999578433,0.0146389548,0.045684799,0.0324022428,0.143404198,-0.447858991,-9.79536814,-0.152532421,-0.0211034322,0.0580009381,0.0843562186,0.0360594317,0.0198686272,-1.69441223,21.98909,-45.3926697,2
3.61136088,0.0231256178,0.00786870172,0.0164797985,0.999565781,0.0149851221,0.0465072652,0.0326224015,0.146789457,-0.455916078,-9.7949467,-0.102347408,-0.0767920382,0.209161806,0.0776190087,0.0357513055,0.0270887055,-1.64891815,21.9011536,-45.1911621,2
3.62131888,0.0234509108,0.00805102746,0.0166304973,0.999554254,0.0153325285,0.0471661865,0.032911096,0.150187639,-0.462370807,-9.79459248,-0.0821028488,-0.10460432,0.281980374,0.0530955568,0.0364197642,0.0329849422,-1.62640381,21.9080048,-45.2921448,2
3.63127588,0.0236451198,0.00821277848,0.016822747,0.999545093,0.0156408584,0.047562981,0.0332855862,0.153204713,-0.466257658,-9.7943616,-0.0574369749,-0.142466324,0.307038243,0.0226261094,0.0272806063,0.0433119945,-1.63593292,21.9197388,-45.2368164,2
3.64123388,0.0236804479,0.00831771143,0.017092977,0.999538848,0.015836843,0.0476414241,0.0338210697,0.15512367,-0.467026049,-9.79429438,-0.00997552363,-0.138705181,0.330913039,-0.0108729955,0.0174197201,0.0655222237,-1.56460571,22.0494537,-45.3550415,2
3.65119188,0.0235305328,0.00837907034,0.0174672935,0.999535356,0.0159468728,0.0473496092,0.0345696494,0.156203502,-0.464167554,-9.79441362,0.0594239383,-0.103106812,0.283447524,-0.0486145578,0.0117350072,0.0860869139,-1.60540009,22.0847626,-45.4398499,2
3.66114888,0.0232297768,0.00841444326,0.0179334216,0.999533796,0.0160060377,0.0467567282,0.0355054457,0.156787366,-0.458359818,-9.79467782,0.0452230521,-0.0960457143,0.186896198,-0.0698402151,0.00966732949,0.0990498513,-1.6645813,21.9142151,-45.2719727,2
3.67110688,0.0228641467,0.00845626497,0.0184458904,0.999532514,0.016078851,0.0460351408,0.0365346683,0.157505835,-0.451291085,-9.79499405,-0.0264236043,-0.0896470993,0.045355976,-0.075137116,0.0121352375,0.105458677,-1.55823517,22.0028076,-45.1906433,2
3.68106388,0.0225158425,0.00847809049,0.0189978642,0.999529947,0.0161099629,0.0453481901,0.037643666,0.157815522,-0.444561411,-9.79529683,-0.0904789288,-0.0657009911,-0.0640250207,-0.065059185,0.00439422717,0.116278835,-1.64784241,21.8922424,-44.8962097,2
3.69102188,0.0222392996,0.00845149517,0.019596516,0.999524801,0.0160401161,0.0448036909,0.038847241,0.157135211,-0.439227137,-9.79554876,-0.106109099,-0.0262936943,-0.15595044,-0.0484869555,-0.00975419767,0.12234357,-1.50214386,21.8764648,-45.1270752,2
3.70097888,0.0220364274,0.00832872505,0.0201997163,0.999518304,0.0157753696,0.0444026901,0.0400630952,0.154544628,-0.435298566,-9.79576503,-0.185370285,0.010778474,-0.148401924,-0.0362132452,-0.0327340811,0.119599707,-1.54523468,22.0119019,-45.3076782,2
3.71093688,0.0218916777,0.0080983961,0.020768678,0.999511728,0.0152950362,0.0441126685,0.0412142485,0.14984131,-0.432457205,-9.79596436,-0.239624182,0.0345726431,-0.0829606073,-0.0264572315,-0.0502564311,0.109815098,-1.42377472,22.0806427,-45.1457825,2
3.72089488,0.0217891792,0.0078132619,0.0212945307,0.999505142,0.0147055101,0.0439036557,0.042280823,0.144067631,-0.430409479,-9.79614088,-0.239985654,0.0172618082,-0.0366956997,-0.0186323319,-0.0559979379,0.102252521,-1.47064209,22.0175171,-45.0341797,2
3.73085188,0.0217246216,0.00753171942,0.0217988241,0.999497916,0.0141227283,0.0437697675,0.0433035042,0.138359409,-0.429097738,-9.79628058,-0.182652441,-0.0243024474,-0.0111176063,-0.0123314746,-0.0502631441,0.101837419,-1.49983215,21.8960114,-45.1036987,2
3.74080988,0.0216754863,0.00729239032,0.0223108403,0.999489398,0.0136235453,0.0436681134,0.0443395466,0.133469847,-0.428101823,-9.79639223,-0.135565075,-0.0769233364,0.0406190106,-0.0121897934,-0.0405641794,0.105265178,-1.48723602,22.0571289,-45.2612305,2
3.75076688,0.0216105715,0.00711469088,0.0228285664,0.999480372,0.0132482522,0.0435372732,0.045384473,0.129794063,-0.42681993,-9.79649744,-0.115279517,-0.0994537692,0.0685568189,-0.0169445537,-0.0264213607,0.105518684,-1.48812866,22.1366119,-45.2372437,2
3.76072488,0.0215248521,0.00699650665,0.0233582154,0.999470841,0.0129926256,0.0433673684,0.0464508737,0.127290757,-0.425155321,-9.79660265,-0.107538876,-0.0785230998,0.113104401,-0.0207779072,-0.01541638,0.109049506,-1.43309021,22.1371307,-45.0760193,2
3.77068288,0.0213995095,0.00689867912,0.0239202101,0.999460937,0.0127783839,0.0431193438,0.0475815367,0.125193255,-0.422725281,-9.79673476,-0.0606997396,-0.0688324575,0.120119833,-0.0314667672,-0.0191886593,0.11669451,-1.66606903,21.9862671,-45.3228455,2
3.78063988,0.021220574,0.00677765923,0.0244994005,0.999451531,0.0125198735,0.0427629996,0.0487481279,0.122662567,-0.419233968,-9.79691713,-0.0840563666,-0.0320712182,0.156364866,-0.0429117009,-0.0208241083,0.117078543,-1.48769379,22.0098419,-45.1657104,2
3.79059788,0.0209994116,0.00666360878,0.0250679991,0.999442911,0.0122782694,0.042322146,0.0498935608,0.120297847,-0.41491457,-9.79712989,-0.134214437,-0.0425257941,0.124555185,-0.047156997,-0.017982766,0.112753943,-1.32034302,22.1423798,-45.0323486,2
3.80055488,0.0207950124,0.00653840479,0.0256174747,0.999434021,0.0120148178,0.0419137516,0.0510008982,0.1177188,-0.410913153,-9.7973298,-0.142259668,-0.0770532829,0.00833762023,-0.0377624296,-0.0257733129,0.110492386,-1.4724884,22.1335449,-44.9536438,2
3.81051288,0.0206521478,0.00633716983,0.026161813,0.999424245,0.0115967514,0.0416241166,0.0521004224,0.113624233,-0.408075299,-9.79749697,-0.12963574,-0.115355285,-0.0218722246,-0.0245988816,-0.0477747172,0.110585153,-1.51900482,22.1727295,-45.0059204,2
3.82047088,0.0205441142,0.00608598239,0.0267190782,0.999413255,0.0110767013,0.0414011701,0.0532274591,0.108530033,-0.405890795,-9.79764544,-0.0907234416,-0.149412563,0.0138899937,-0.0234710332,-0.0447144769,0.114903733,-1.40158844,22.0087433,-45.0792236,2
3.83042788,0.0204468646,0.00586698508,0.027280632,0.999401397,0.0106205519,0.0412010159,0.0543615621,0.104061692,-0.403929651,-9.7977752,-0.0693460513,-0.151972294,0.0942255131,-0.0212991368,-0.0376003459,0.110939577,-1.40158844,22.0087433,-45.0792236,2
3.84038588,0.0203614719,0.00571435114,0.02781921,0.999389174,0.0102976887,0.0410275156,0.0554467705,0.100899063,-0.402229605,-9.79787808,-0.0795011693,-0.124193695,0.186804428,-0.0157877244,-0.017498007,0.106235363,-1.43170166,22.0071411,-44.8592529,2
3.85034288,0.0202812639,0.00566106464,0.028336758,0.999376611,0.010174332,0.0408694504,0.0564857348,0.0996910759,-0.400680841,-9.79795407,-0.0516576791,-0.0994062768,0.254516613,-0.0183385406,0.00234447839,0.10267102,-1.24370575,22.195816,-45.0076904,2
3.86030088,0.0201493038,0.00571337062,0.0288499223,0.999364204,0.0102655098,0.040613811,0.0575120178,0.100585477,-0.398175946,-9.79804701,0.00161673275,-0.0745274908,0.325687414,-0.0378762931,0.0249509886,0.103681423,-1.33783722,22.2412109,-45.0836487,2
3.87025788,0.0199066084,0.00588289729,0.0293689277,0.999353055,0.0105976475,0.0401437898,0.0585462195,0.103841748,-0.393570352,-9.79819898,0.046992683,-0.0614758111,0.322996275,-0.0594177097,0.0485785827,0.102712244,-1.47192383,22.1437988,-44.9992065,2
3.88021588,0.0195687634,0.00611154077,0.0298743461,0.999343336,0.0110546894,0.039487244,0.0595518544,0.108322756,-0.387136958,-9.79840649,0.0971293905,-0.0893073825,0.182096104,-0.0765266567,0.0492489003,0.0965046808,-1.41143036,22.2036438,-44.8641663,2
3.89017388,0.0191745368,0.00631150462,0.030342514,0.999335665,0.0114598545,0.0387162824,0.0604848441,0.112296108,-0.379582195,-9.79865783,0.155854213,-0.0347625762,0.0509650481,-0.08118736,0.0387600698,0.0888110325,-1.26256561,22.2015839,-45.0574646,2
3.90013088,0.0187825411,0.00645903861,0.0307639039,0.999329228,0.0117625022,0.0379464011,0.0613264559,0.11526505,-0.372037771,-9.79891268,0.202714602,0.0166502522,-0.0870452462,-0.072598666,0.0285178162,0.0780811608,-1.18215179,22.3694305,-44.8416748,2
3.91008888,0.0184473467,0.00656678984,0.0311181772,0.999323885,0.0119852217,0.0372870811,0.0620348682,0.117450367,-0.365576612,-9.79912954,0.206065867,0.00794452926,-0.212972889,-0.0608599074,0.0210275315,0.0627836511,-1.1678009,22.2165375,-44.9839172,2
3.92004588,0.0181878632,0.0066380034,0.0313944663,0.999319557,0.0121334784,0.0367760571,0.0625878921,0.118905406,-0.360568648,-9.79929788,0.174982582,-0.0331261341,-0.265476983,-0.0426774397,0.0131139494,0.046508275,-1.25211334,22.320816,-44.8089905,2
3.93000388,0.0180226934,0.00667829079,0.0315790067,0.999316421,0.0122175931,0.0364506056,0.0629574921,0.119731098,-0.357379168,-9.79940427,0.158444924,-0.0580129938,-0.291257321,-0.0245226584,0.00656549633,0.0255474709,-1.24445343,22.3901215,-45.0014038,2
3.93996188,0.0179176411,0.00669244888,0.0316569707,0.999315704,0.0122496523,0.0362424193,0.0631141016,0.120046165,-0.35533893,-9.79947499,0.115034237,-0.0718746747,-0.241956406,-0.0165086742,0.00155182974,0.00453273207,-1.21181488,22.6505661,-45.1659546,2
3.94991888,0.0178494764,0.00669498374,0.0316368658,0.999317577,0.0122597241,0.036106052,0.0630744441,0.120145451,-0.354002494,-9.79952176,0.104460318,-0.148628463,-0.144046652,-0.0117151737,0.000220017275,-0.0130890515,-1.22100067,22.6349411,-45.14505,2
3.95987688,0.0177791582,0.00667347027,0.0315498999,0.99932171,0.0122242346,0.0359630438,0.0629018197,0.119798291,-0.352600957,-9.7995767,0.12650494,-0.282758519,-0.0194932205,-0.0183294006,-0.0113673965,-0.0206423085,-1.21891785,22.5820389,-45.0763855,2
3.96983388,0.0176444464,0.00656270333,0.0314490607,0.999327971,0.0120147217,0.0356855328,0.0627052416,0.117746327,-0.34988125,-9.79969887,0.228065901,-0.464145488,0.156902626,-0.0368024632,-0.0310423113,-0.019598728,-1.34481049,22.4658737,-45.1487427,2
3.97979188,0.0174197906,0.00637557387,0.0313698759,0.999335584,0.0116572571,0.0352237184,0.0625555122,0.114245141,-0.34535526,-9.79990111,0.329130796,-0.56803092,0.322753114,-0.0547756031,-0.038924735,-0.0107016396,-1.13231659,22.5741501,-45.1402588,2
3.98974988,0.0171120442,0.00619176888,0.0313517677,0.999342718,0.0113094212,0.0345967406,0.062528545,0.110838803,-0.339210437,-9.80015479,0.378176603,-0.625950317,0.398873061,-0.0696454942,-0.0287354384,0.00337483222,-1.14172363,22.4984512,-45.2983093,2
3.99970688,0.016752697,0.00610742035,0.0314076194,0.999347573,0.011161181,0.0338736507,0.0626465079,0.109388732,-0.332123511,-9.80041374,0.381871256,-0.675384721,0.408259898,-0.0734721869,0.000543087488,0.01766349,-1.17276001,22.5911789,-45.1647644,2
4.00966488,0.0163872999,0.00615540462,0.031524295,0.999349687,0.0112760403,0.0331474455,0.0628817998,0.110517097,-0.325005861,-9.80063995,0.305624832,-0.74939038,0.329028541,-0.0741849318,0.0196655281,0.0279164389,-1.21095276,22.5714645,-45.2194824,2
4.01962188,0.0159984541,0.00625222724,0.0316990255,0.999349899,0.0114883284,0.0323781429,0.0632320316,0.112600488,-0.317465638,-9.80086323,0.236803042,-0.828158066,0.288700037,-0.0848098844,0.0267926808,0.0426498465,-1.21901703,22.4084549,-44.9377441,2
4.02957988,0.0155204084,0.00637739467,0.0319516575,0.999348553,0.0117607554,0.0314333081,0.0637383385,0.115273982,-0.308204693,-9.80112802,0.233680636,-0.879766527,0.271906139,-0.10802225,0.0288094003,0.0554793589,-1.24475861,22.5860977,-45.1963196,2
4.03953688,0.0148928322,0.00648678348,0.0322429743,0.99934797,0.0120104907,0.0301891351,0.0643243275,0.117726179,-0.296009319,-9.80147464,0.215516509,-0.94283863,0.199678523,-0.14538534,0.0238407403,0.056964606,-1.23607635,22.7036667,-45.1021729,2
4.04949488,0.0140698773,0.00652358305,0.0325296542,0.999350393,0.0121285539,0.028549773,0.0649054668,0.118889095,-0.279939607,-9.80193291,0.158089827,-1.01876335,0.18128245,-0.186167344,0.00309961522,0.0557274111,-1.12832642,22.8067093,-44.7662048,2
4.05945288,0.0130633661,0.00648464994,0.032798865,0.999355466,0.012108573,0.0265383859,0.0654557898,0.118699828,-0.260222113,-9.80247827,0.132242168,-1.02710842,0.0929430721,-0.218797728,-0.0058288984,0.0510234684,-1.16618347,22.9686508,-44.9962463,2
4.06940988,0.0119075211,0.00639430572,0.0330427341,0.999362463,0.0119973519,0.0242247992,0.0659582087,0.11761649,-0.237540892,-9.80306688,0.11566826,-1.01567225,-0.0402437476,-0.246386454,-0.0148990713,0.044622805,-1.1484375,22.961998,-45.0402527,2
4.07936788,0.0106301231,0.00625207604,0.0332421837,0.999371152,0.0117925924,0.0216642367,0.0663739265,0.115616009,-0.212436973,-9.80366718,0.126946281,-0.971194737,-0.119400871,-0.269407094,-0.0251530409,0.0353872254,-1.15803528,23.3138657,-44.8471069,2
4.08932488,0.00925341408,0.00604476984,0.0333857066,0.999381373,0.0114664964,0.0189001224,0.0666795378,0.112425369,-0.185335853,-9.80425404,0.080457237,-0.902976722,-0.21129005,-0.287565619,-0.0351826139,0.020701915,-1.14585114,23.2971573,-44.8344727,2
4.09928288,0.00781520286,0.00581165389,0.033461719,0.999392508,0.011094876,0.0160105302,0.0668502863,0.108787387,-0.157002963,-9.80478947,0.0733213116,-0.854395865,-0.277492999,-0.292983532,-0.0381554998,0.00806175265,-1.40278625,23.3886032,-44.8406372,2
4.10924088,0.00638251476,0.00557094203,0.0334832318,0.999403335,0.0107089495,0.0131308567,0.0669110744,0.10500786,-0.128766017,-9.80524247,0.102090328,-0.833551669,-0.392709863,-0.282371074,-0.0384579301,9.66135412E-05,-1.28829956,23.4575882,-44.928894,2
4.11919788,0.00504588013,0.00534766613,0.0334754559,0.99941245,0.0103519714,0.0104440518,0.0669111709,0.101510811,-0.102419295,-9.80558968,0.109926867,-0.802287931,-0.503094483,-0.255241454,-0.0314487554,-0.00540600996,-1.28908539,23.7825089,-44.9039612,2
4.12915588,0.00388821298,0.00519460469,0.0334384631,0.999419676,0.0101236552,0.00811940151,0.0668497017,0.0992741748,-0.0796232522,-9.80582407,0.0768490199,-0.793510385,-0.525604421,-0.210093111,-0.0130734611,-0.011690693,-1.44884491,23.8356247,-45.096283,2
4.13911288,0.00297580684,0.00518160191,0.0333703197,0.999425158,0.0101590153,0.00629405743,0.0667222512,0.0996222211,-0.06172321,-9.80594974,-0.00325585999,-0.885630742,-0.505128619,-0.156808585,0.0184692852,-0.0177893322,-1.37714386,24.0594406,-44.7843323,2
4.14907088,0.00230894093,0.00531297839,0.0332807229,0.999429148,0.0104665248,0.00496890571,0.0665488457,0.102638409,-0.0487281193,-9.80599183,-0.0608897731,-0.97374391,-0.410216293,-0.110239819,0.0438572541,-0.017855864,-1.24552155,24.0728073,-44.901947,2
4.15902888,0.00183562734,0.00557392347,0.0331989467,0.999431459,0.0110199401,0.00403927518,0.0663889788,0.108065631,-0.0396116511,-9.80597429,-0.0752952603,-1.06037261,-0.247128256,-0.0750602633,0.0678627193,-0.0173128434,-1.23126984,24.2679367,-44.8746033,2
4.16898588,0.00150677832,0.00592422667,0.0331186087,0.999432648,0.0117422642,0.00340425776,0.0662305775,0.115148958,-0.0333842987,-9.80591701,-0.0991379995,-1.10819922,-0.0731575907,-0.0517774075,0.0769248083,-0.016555531,-1.17974091,24.2506485,-44.8717957,2
4.17894388,0.00124181826,0.00631502884,0.0330387828,0.999433335,0.0125412258,0.00289951492,0.0660727793,0.12298367,-0.0284344874,-9.80583751,-0.13390748,-1.13364937,0.152715696,-0.0512543656,0.0821949393,-0.016429564,-1.17974091,24.2506485,-44.8717957,2
4.18890088,0.000937918979,0.0067242556,0.03294893,0.999433878,0.013379526,0.00231789213,0.0658957962,0.131204058,-0.0227307365,-9.80574574,-0.109506879,-1.13067416,0.373489614,-0.0666446388,0.0832927376,-0.0212881677,-1.01331329,24.1723099,-44.5783386,2
4.19885888,0.000534225805,0.0070880072,0.0328214015,0.999435866,0.0141334363,0.00153312612,0.0656454133,0.138596889,-0.0150348255,-9.80565924,-0.116450789,-1.18760089,0.500744121,-0.0914996564,0.0660580918,-0.0297735315,-1.19651031,24.2292709,-44.8647461,2
4.20881688,-8.2545722E-06,0.00736994443,0.0326772878,0.999438748,0.0147326901,0.000465159728,0.0653645592,0.144473097,-0.00456165849,-9.80558442,-0.0814759308,-1.25942548,0.608857874,-0.124607362,0.0544881374,-0.027836971,-1.1192627,24.2809219,-44.8751831,2
4.21877388,-0.000708475018,0.00759573831,0.0325550023,0.99944077,0.0152297051,-0.000921599209,0.0651304207,0.149346548,0.00903779983,-9.80550843,-0.00225305789,-1.28843764,0.615066666,-0.151886657,0.045451764,-0.0235940218,-1.22498322,24.1632614,-44.7631226,2
4.22873188,-0.00152585182,0.00778929325,0.0324559166,0.999441618,0.0156696255,-0.00254438506,0.0649452139,0.153659754,0.0249518672,-9.80541432,0.0407192379,-1.29432596,0.53461658,-0.170817643,0.0467610024,-0.0189804062,-1.15488434,24.2266006,-44.8965759,2
4.23868888,-0.00239543687,0.00803354333,0.0323762118,0.999440521,0.0162140659,-0.0042680149,0.064800615,0.158997261,0.0418547995,-9.8052717,0.0596230228,-1.27935607,0.385584541,-0.173377484,0.0634478331,-0.0153531814,-1.19865417,24.369545,-44.8179321,2
4.24864688,-0.00322032982,0.00836989519,0.0323054268,0.999437747,0.0169395512,-0.00589628645,0.0646746346,0.166109412,0.0578224808,-9.80507238,0.0866282081,-1.30639692,0.140279408,-0.15157707,0.0828741938,-0.0179151651,-1.01633453,24.5569534,-44.9521484,2
4.25860388,-0.00393276031,0.00879798135,0.0322250304,0.999434165,0.0178408939,-0.00729410428,0.0645292831,0.174945465,0.0715300945,-9.80482863,0.100836364,-1.30738535,-0.0410264224,-0.129367635,0.0966376811,-0.0169545636,-0.908355713,24.5576248,-44.6487427,2
4.26856188,-0.00455093902,0.00927314674,0.0321417135,0.999429954,0.0188300643,-0.00850068229,0.06437797,0.184642263,0.0833622104,-9.80455741,0.113285932,-1.27297937,-0.0776595783,-0.11353185,0.101326019,-0.0169619303,-1.00689697,24.6373367,-44.8778687,2
4.27851988,-0.00510090036,0.00974183093,0.0320610351,0.999425421,0.0198017483,-0.00957141876,0.0642317093,0.19416723,0.0938621232,-9.80427859,0.157331227,-1.22482142,-0.0970920085,-0.104082957,0.0934806168,-0.0168079995,-1.07475281,24.6320877,-44.7638855,2
4.28847663,-0.00561194609,0.0101469416,0.031976121,0.999421329,0.0206436553,-0.0105686743,0.0640765376,0.202419419,0.103641357,-9.80401264,0.192025012,-1.17908513,-0.137609897,-0.0971492752,0.0782088488,-0.0169976819,-1.10256958,24.5335007,-44.9199524,2
4.29843463,-0.00611148772,0.0104839976,0.0319058635,0.999417121,0.0213488027,-0.0115471055,0.0639505191,0.209330386,0.113235909,-9.80376188,0.221176726,-1.10787532,-0.126189508,-0.099320285,0.0636022091,-0.0127613917,-1.03450012,24.8705063,-44.8258667,2
4.30839163,-0.0066110455,0.0107011126,0.0318614399,0.999413066,0.0218143814,-0.0125327529,0.0638754099,0.213892232,0.122901107,-9.80354677,0.261356524,-1.04765977,-0.143164024,-0.0983841047,0.031936992,-0.00534413476,-1.05667114,24.6397934,-44.5245972,2
4.31834963,-0.00708788507,0.0107889562,0.0318618066,0.999408897,0.0220206034,-0.0134802878,0.0638881416,0.21591128,0.132192457,-9.80338135,0.310812793,-1.02657468,-0.179541159,-0.091717951,0.00595386047,0.00283390027,-0.963577271,24.8606491,-44.7276306,2
4.32830762,-0.00750701499,0.0107093307,0.0318992936,0.999405479,0.0218888573,-0.0143223533,0.0639716281,0.214617203,0.140449504,-9.80329543,0.311508337,-1.02914548,-0.241278361,-0.0766842663,-0.0338533409,0.00998522155,-1.12059021,24.7405624,-44.7883911,2
4.33826463,-0.00785690715,0.0104681851,0.0319622754,0.999403339,0.02143019,-0.015035831,0.0641020364,0.21011854,0.147445574,-9.80329017,0.313313524,-1.04377307,-0.225870949,-0.0688175559,-0.0547181442,0.0123658208,-0.880523682,24.980217,-44.6787415,2
4.34822263,-0.00819063186,0.0101694292,0.032039383,0.999401333,0.0208556165,-0.0157204598,0.0642591412,0.20448364,0.154158698,-9.80330595,0.303535751,-1.10256011,-0.24934827,-0.0724968463,-0.0618616715,0.0157358516,-0.941444397,24.8005447,-44.7088318,2
4.35817963,-0.00855382626,0.00980220424,0.0321398569,0.99939869,0.0201465521,-0.016468027,0.0644621239,0.197530039,0.161488876,-9.8033305,0.327099107,-1.20251599,-0.257853064,-0.0784202516,-0.0799277574,0.0235381145,-0.952651978,25.0902634,-44.4621277,2
4.36813763,-0.00893984731,0.00937581942,0.0322973381,0.999394267,0.0193218283,-0.0172640939,0.0647781265,0.189442375,0.169294509,-9.80335856,0.403571156,-1.25356681,-0.302117737,-0.0799491853,-0.0833174214,0.0359491035,-0.91709137,25.0329666,-44.3450623,2
4.37809563,-0.00928655227,0.00898839071,0.0325187131,0.999387465,0.0185738128,-0.0179781145,0.0652212934,0.182106973,0.176295583,-9.80337375,0.486323893,-1.29528385,-0.393081618,-0.0646924675,-0.0654505417,0.050434038,-0.829574585,25.1527634,-44.4678345,2
4.38805263,-0.00952699811,0.00875192308,0.032798778,0.999378208,0.0181219926,-0.0184690938,0.065782171,0.177676005,0.181109651,-9.80336733,0.533850527,-1.30982442,-0.543922753,-0.0360088758,-0.0276892334,0.0609410107,-0.803634644,25.1505051,-44.4796753,2
4.39801063,-0.00960138031,0.00871120759,0.0331127623,0.999367574,0.0180513608,-0.018614787,0.0664112248,0.17698309,0.182538167,-9.8033533,0.532598153,-1.27683619,-0.743403707,0.00460992288,0.00961499475,0.0641778186,-0.697059631,25.2647171,-44.3704834,2
4.40796763,-0.00947523585,0.0088325394,0.0334387395,0.99935681,0.0182914955,-0.0183486145,0.0670633835,0.179338093,0.17992835,-9.80335914,0.47637365,-1.29637281,-0.852933172,0.0435100868,0.0381774604,0.0650982484,-0.769882202,25.2345047,-44.5144043,2
4.41792563,-0.00916837919,0.00907577022,0.0337381934,0.999347423,0.0187623883,-0.0177133183,0.0676609935,0.18395651,0.173699228,-9.80338603,0.405016825,-1.25767235,-0.934758054,0.0805655718,0.0521020629,0.0555106029,-0.76133728,25.2531204,-44.4015198,2
4.42788363,-0.00868044135,0.00933209161,0.0339442801,0.999342476,0.0192450905,-0.0167167038,0.0680679889,0.188691849,0.163927228,-9.80346377,0.31678372,-1.14928913,-1.02925069,0.117076516,0.0400178879,0.0287101325,-0.727729797,25.2135849,-44.6799316,2
4.43784063,-0.00803010127,0.00950098633,0.0340049695,0.999344182,0.0195391988,-0.0154041177,0.0681788148,0.191579168,0.151056814,-9.80361458,0.212292469,-1.0409499,-1.0873095,0.147255719,0.0195038281,-0.00187227922,-0.605155945,25.3310623,-44.412384,2
4.44779863,-0.00721904093,0.00957802881,0.0339190333,0.999352507,0.019636506,-0.0137794144,0.0679912531,0.192537693,0.135125615,-9.80382851,0.153873086,-0.932991628,-1.1520377,0.180356726,0.0046168617,-0.0282587707,-0.526237488,25.2275925,-44.5868225,2
4.45775563,-0.00621593205,0.00961433845,0.0337098206,0.999366013,0.0196381859,-0.0117760594,0.0675524682,0.192559083,0.115481021,-9.80407927,0.126168739,-0.81757895,-1.23438748,0.223234415,-0.00104262179,-0.0513454489,-0.708580017,25.0351944,-44.6920166,2
4.46771363,-0.00499424265,0.00961983433,0.0333832624,0.999383751,0.0195633616,-0.0093401828,0.0668742166,0.19183044,0.091594571,-9.80434581,0.0502829476,-0.731293583,-1.23292384,0.266525239,-0.011334911,-0.0741964802,-0.536231995,24.9807816,-44.6758118,2
4.47767163,-0.00357308321,0.00960434287,0.0329386953,0.999404758,0.0194342723,-0.00650924964,0.065956018,0.190569078,0.0638334801,-9.80459014,0.00904721154,-0.619286548,-1.17282388,0.300756186,-0.0148316417,-0.0985391065,-0.572807312,24.6882858,-44.7140808,2
4.48762863,-0.00202424033,0.00953970834,0.0323491086,0.999428967,0.0192007791,-0.00342897344,0.0647454999,0.188282647,0.0336266767,-9.80478479,-0.0808431219,-0.560947866,-1.03182084,0.319918513,-0.0330063552,-0.133049443,-0.729248047,24.4960098,-44.8452759,2
4.49758663,-0.000407229361,0.00937663748,0.0315782959,0.999457123,0.018769916,-0.000221820107,0.0631719523,0.184059185,0.0021753122,-9.80492215,-0.254838045,-0.618081922,-0.80647888,0.325449884,-0.0513779037,-0.170731053,-0.77986908,24.3334274,-44.9971313,2
4.50754363,0.00118248212,0.00919181243,0.0306574444,0.99948691,0.0183027889,0.00292734994,0.0613003375,0.17947825,-0.0287074546,-9.80496541,-0.337645489,-0.7724505,-0.56731415,0.311020344,-0.0370895974,-0.190264538,-0.927337646,24.1030502,-45.1634216,2
4.51750163,0.00267864278,0.00916641132,0.0296802901,0.999513736,0.0181662174,0.00589883821,0.0593184206,0.178136845,-0.0578475056,-9.80486136,-0.256846499,-0.7780264,-0.360469973,0.292105526,0.0108752679,-0.197048411,-0.867225647,23.8991623,-44.9708252,2
4.52745963,0.00409990726,0.00937517189,0.028656164,0.999536906,0.0185084479,0.00873344118,0.0572423499,0.181488585,-0.0856447135,-9.80459657,-0.146024747,-0.60882167,-0.185209852,0.281935602,0.0500449874,-0.209872529,-0.867225647,23.8991623,-44.9708252,2
4.53741663,0.00543691226,0.00969413038,0.0275636878,0.999558221,0.0190823715,0.0114036798,0.0550289542,0.187110608,-0.111829477,-9.80422716,-0.0341812692,-0.475346718,0.134495564,0.262449503,0.055983305,-0.224393144,-0.895942688,23.6449661,-45.1104431,2
4.54737462,0.00660653736,0.00995308695,0.0264126116,0.999579787,0.0195519067,0.0137337282,0.0527008739,0.191708402,-0.134677634,-9.80385072,0.142282419,-0.361219623,0.470205775,0.20848538,0.0288609788,-0.233768821,-0.906646729,23.708046,-45.2456665,2
4.55733163,0.00741927092,0.0100289394,0.0252344083,0.999603705,0.0196790734,0.0153394117,0.0503271619,0.192950621,-0.150422343,-9.80359763,0.279305364,-0.272601428,0.648020841,0.117531247,-0.0110182613,-0.236627728,-0.994407654,23.5356216,-45.5217896,2
4.56728963,0.0076792986,0.00989673211,0.0240585145,0.999631974,0.0194203284,0.0158298073,0.047971726,0.190412536,-0.155230894,-9.80357249,0.39048035,-0.07161796,0.647097881,-0.012042189,-0.0447449759,-0.236702174,-1.03196716,23.5460281,-45.4098816,2
4.57724763,0.00729514047,0.00961275992,0.022862739,0.999665692,0.0188887741,0.0150255167,0.0455908752,0.185203678,-0.147344442,-9.80379403,0.385064937,0.101257814,0.483615876,-0.135868266,-0.0707624629,-0.246865332,-1.26377106,23.534996,-45.5296936,2
4.58720463,0.00640386748,0.00915685361,0.0215692361,0.999704891,0.0180345981,0.0131993512,0.0430254834,0.176834001,-0.12943766,-9.80420085,0.239906397,0.17088903,0.153174546,-0.212217763,-0.108127102,-0.276671231,-1.37112427,23.6826859,-45.4763489,2
4.59716263,0.00531138891,0.00848615036,0.0200939515,0.999747951,0.01675636,0.0109613605,0.0401007823,0.164306199,-0.107492069,-9.80468425,0.0846904633,0.214185424,-0.258743875,-0.217030093,-0.155266911,-0.317854881,-1.22328949,23.6278152,-45.035614,2
4.60711963,0.00435557977,0.00761615175,0.018418274,0.999791817,0.0150698672,0.00899001985,0.0367723061,0.147773344,-0.088160788,-9.80514018,-0.0180378615,0.227475132,-0.580906622,-0.162041947,-0.186380267,-0.35740748,-1.58467102,23.7597427,-45.1422424,2
4.61707763,0.00377231475,0.00667471535,0.0165696434,0.999833225,0.0132229765,0.00776464458,0.0330904377,0.129665413,-0.0761443879,-9.80549732,-0.0198317317,0.250623569,-0.680507398,-0.0709871426,-0.18743062,-0.384950429,-1.66165161,23.7813644,-45.3265991,2
4.62703563,0.00369219946,0.00579607211,0.0145994828,0.999869753,0.0114834059,0.00755274823,0.0291573248,0.11260806,-0.0740664537,-9.80572353,-0.0189352487,0.281166628,-0.578676671,0.0389082842,-0.164790705,-0.403482348,-1.87194824,24.0324783,-45.65802,2
4.63699263,0.00415917267,0.00512252144,0.0125765089,0.999899087,0.0101399287,0.00844645322,0.0251114034,0.0994334844,-0.0828304233,-9.80579601,-0.0656157148,0.337216085,-0.298632818,0.144468531,-0.107347116,-0.406265348,-2.13502502,23.9025192,-45.4518738,2
4.64695063,0.00507955972,0.0048401116,0.0105781842,0.999919448,0.00957262852,0.0102608803,0.0211081716,0.0938690461,-0.100623096,-9.80568437,-0.136067188,0.429079363,0.0232756616,0.223311335,-0.0102414619,-0.391677827,-2.19417572,23.7360611,-45.3187256,2
