Time (s),Quaternion X,Quaternion Y,Quaternion Z,Quaternion W,Roll (rad),Pitch (rad),Yaw (rad),Gravity X (m/s^2),Gravity Y (m/s^2),Gravity Z (m/s^2),User Acceleration X (m/s^2),User Acceleration Y (m/s^2),User Acceleration Z (m/s^2),Rotation Rate X (rad/s),Rotation Rate Y (rad/s),Rotation Rate Z (rad/s),Magnetic Field X (µT),Magnetic Field Y (µT),Magnetic Field Z (µT),Magnetic Accuracy
0.0196130417,0.0432558609,0.0108612891,3.11508542E-17,0.999005016,0.0217841909,0.0865335985,-0.000943157974,0.212813771,-0.847546073,-9.76763842,0.119831006,0.0570090044,-0.0536760606,0.179138154,-0.108030304,0.0928304121,-2.8585968,19.7030411,-46.3831787,2
0.0295710417,0.0440921442,0.010475058,0.000407613071,0.998972475,0.0209757418,0.0882165913,-0.000109773924,0.20488685,-0.863987577,-9.76636709,0.032139516,0.0706073947,0.0671574735,0.150870562,-0.0414629988,0.0798363164,-2.93338013,19.6920395,-46.4872437,2
0.0395280417,0.0447376851,0.0103581499,0.000739338936,0.998944828,0.0207126936,0.0895157763,0.000552530605,0.202294404,-0.876677986,-9.7652904,-0.0617843291,0.0948199719,0.144191613,0.111122504,-0.00808759034,0.0563556701,-2.97782898,19.6519699,-46.5040588,2
0.0494860417,0.0452030516,0.0102839149,0.000959257105,0.99892444,0.0205444096,0.0904518847,0.000990772487,0.200634106,-0.885820931,-9.76449954,-0.220086611,0.0782251763,0.122001993,0.0786463246,-0.0169159696,0.0384331271,-2.88100433,19.7018509,-46.4988403,2
0.0594430417,0.0455583893,0.0101737325,0.00112014425,0.99890925,0.0203089359,0.091166418,0.00131631392,0.19832192,-0.892799246,-9.76391093,-0.214632017,0.0615607494,0.0823585497,0.0685801059,-0.0223328378,0.0324777663,-2.96798706,19.5719376,-46.6912537,2
0.0694010417,0.0459441349,0.0100100067,0.00128039888,0.998893055,0.0199658485,0.091941668,0.00164511003,0.194958143,-0.900369973,-9.76328374,-0.153657799,0.013615999,-0.0225660521,0.0876938775,-0.0460783839,0.039566569,-3.0036087,19.6105881,-46.5157166,2
0.0793590417,0.0464392204,0.00968278884,0.00148466065,0.998873068,0.0192902988,0.0929362506,0.00207561146,0.188345155,-0.910081878,-9.76251334,-0.0705799587,-0.00211056241,0.0519306782,0.106640711,-0.0771691725,0.0516292304,-3.01779175,19.3962173,-46.7675171,2
0.0893160417,0.0469368146,0.00930159417,0.00174495563,0.998853077,0.0185006629,0.0939365147,0.00262430721,0.180619328,-0.919848362,-9.76174352,-0.0562700957,0.0320467779,0.319312033,0.0900643989,-0.0684401318,0.0593177788,-3.0504303,19.5887985,-46.5535278,2
0.0992740417,0.0472784028,0.00902951797,0.00202399836,0.998838902,0.0179278425,0.0946247131,0.00320383227,0.175016193,-0.926567295,-9.76121044,-0.0762550087,0.0612114245,0.512858337,0.0434303358,-0.0322456397,0.0579081103,-2.97983551,19.5028305,-46.5643616,2
0.109232042,0.0473699171,0.0089995304,0.00231435441,0.99883424,0.0178398846,0.0948130366,0.00378771999,0.174154498,-0.928405835,-9.76105086,-0.072699837,0.0465898287,0.60308046,-0.00744243199,0.0298472941,0.0593073331,-2.97394562,19.5620651,-46.6941223,2
0.119189042,0.0472587627,0.00927114193,0.00260103563,0.998836309,0.0183579668,0.0945967863,0.00433914589,0.179215179,-0.926294615,-9.76116017,-0.0994579522,0.0123065239,0.514454082,-0.0346959941,0.0837068632,0.0492440164,-3.04828644,19.4360733,-46.6188965,2
0.129147042,0.047077831,0.00974598237,0.00284582287,0.998839586,0.0192881762,0.0942413107,0.00478866925,0.18830137,-0.922824162,-9.7613174,-0.124555368,-0.0335113706,0.279531227,-0.0326770544,0.105932273,0.0393170863,-3.04816437,19.4177628,-46.7155762,2
0.139105042,0.046990027,0.0102604285,0.00304572261,0.998838016,0.0203019285,0.0940720393,0.00514285319,0.198199993,-0.9211715,-9.76127766,-0.117245702,-0.0532701102,0.0147825586,-0.000567204552,0.10226842,0.0317236781,-2.96795654,19.3637619,-46.5513,2
0.149062042,0.047068624,0.0106765961,0.00320702669,0.998829431,0.0211215724,0.0942349435,0.00542557876,0.206197531,-0.922761984,-9.76096202,-0.0930711189,-0.0515300616,-0.192183199,0.0340213999,0.0624416433,0.0265888348,-2.84888458,19.3892593,-46.5527954,2
0.159020042,0.0472697902,0.0108544737,0.00334598239,0.998817526,0.0214646483,0.0946416491,0.00568333875,0.209538201,-0.926732641,-9.76051427,-0.0485277562,-0.0515996197,-0.136516256,0.0432307459,0.0166084208,0.0254783649,-3.02508545,19.3546829,-46.6107483,2
0.168978042,0.0474647865,0.0108904196,0.00345038648,0.998807663,0.0215261143,0.0950345242,0.00588531264,0.210130286,-0.930568128,-9.76013667,0.0298887962,-0.00945697965,-0.00685877985,0.0299048238,0.00105822273,0.016446786,-2.85971832,19.4574814,-46.7156982,2
0.178935042,0.0475444116,0.0108268243,0.00351738548,0.998804219,0.0213917696,0.0951949944,0.00602416033,0.20881586,-0.932134646,-9.76001567,0.0702586361,-0.0165692959,0.0667915628,-0.0016318683,-0.0264966432,0.0146823265,-2.91030884,19.501915,-46.7059326,2
0.188893042,0.0474391188,0.01062425,0.00361082436,0.998811159,0.0209767381,0.0949849305,0.00623319061,0.204769233,-0.930083924,-9.76029683,0.162741123,-0.0056016194,0.185286425,-0.0413808785,-0.0494839847,0.025914209,-2.94454956,19.3906479,-46.7188416,2
0.198850042,0.0471582437,0.0103318813,0.00375553435,0.99882703,0.0203774936,0.0944237091,0.00655704752,0.198930992,-0.924604908,-9.76093805,0.222299228,-0.0272414965,0.143280928,-0.0700393543,-0.0638781711,0.0351107493,-2.93639374,19.4970169,-46.7662048,2
0.208808042,0.0468022055,0.00999867803,0.00392616258,0.998846435,0.0196944638,0.0937120472,0.00693784363,0.19227685,-0.91765677,-9.76172715,0.166554507,-0.0802780171,0.0131371295,-0.0690265521,-0.0600410849,0.0381017476,-2.86157227,19.6068039,-46.6860962,2
0.218766042,0.0465352087,0.00980048328,0.00410486774,0.998860184,0.0192814171,0.0931795728,0.0073200629,0.18825417,-0.91245774,-9.76229297,0.0421881049,-0.0651262599,-0.146409289,-0.0358509384,-0.0129921455,0.0355529226,-2.82009125,19.6488113,-46.7622986,2
0.228723042,0.0465074786,0.0098316289,0.00424639771,0.998860543,0.0193308367,0.0931270198,0.00760164194,0.188737552,-0.911944603,-9.76233155,-0.0380521193,-0.0228430424,-0.314563378,0.026228942,0.0278104115,0.0189744793,-2.9144516,19.6023331,-46.4793701,2
0.238681042,0.0467849403,0.0100389289,0.00429690556,0.998845305,0.0197404562,0.0936850926,0.00767829277,0.192726292,-0.917393589,-9.76174294,-0.129279565,0.0165736067,-0.35271103,0.081887573,0.0558448508,-0.00083207339,-2.93578339,19.4854965,-46.6866455,2
0.248639042,0.0472397734,0.0103659993,0.00427622717,0.998820661,0.0203961321,0.0945978036,0.00759703254,0.199109637,-0.926304552,-9.7607738,-0.183995855,0.0293751476,-0.29442426,0.0955629051,0.0726134479,-0.0107555445,-2.88651276,19.5477982,-46.5970154,2
0.258596042,0.0476883933,0.0106953875,0.00422756182,0.998796122,0.0210593165,0.0954974818,0.00745890776,0.205565151,-0.935087578,-9.75980232,-0.128501402,0.00598608867,-0.137827339,0.0827950686,0.0532263033,-0.0110301794,-2.98200989,19.4915543,-46.6885681,2
0.268554042,0.0480244046,0.0108619632,0.00418541735,0.998778362,0.0213958747,0.0961705709,0.00735136524,0.208836373,-0.941658042,-9.7591009,-0.0434864741,0.0106113373,0.0589934562,0.0523447469,0.010528909,-0.0034279197,-2.8939209,19.5503006,-46.6842041,2
0.278512042,0.048191615,0.0108102961,0.00419972287,0.998770799,0.0212898965,0.096505283,0.00738160336,0.207795395,-0.944925227,-9.75880747,0.0486838053,0.0200136642,0.217764799,0.0153200561,-0.0286808442,0.0112288306,-2.79793549,19.5352859,-46.7064209,2
0.288469042,0.0481889615,0.0106164688,0.00426593597,0.998772706,0.0208944612,0.0964999192,0.00753332738,0.203936509,-0.94487284,-9.75889398,0.0800760283,0.0320818492,0.293417714,-0.0136788394,-0.044134099,0.0158755146,-2.79608154,19.5535202,-46.7191162,2
0.298427042,0.0480895154,0.0104087711,0.00432332399,0.9987794,0.0204725984,0.0963004113,0.00767060347,0.199823429,-0.942925432,-9.75916753,-0.0105314953,0.0156195939,0.259723534,-0.0242709573,-0.0336724669,0.00943876989,-2.72745514,19.485405,-46.5247803,2
0.308385042,0.0479790208,0.0102860326,0.00435777947,0.998785952,0.0202235696,0.0960789442,0.00775378833,0.197397335,-0.940763651,-9.75942531,-0.0933988348,-0.0215573134,0.153290281,-0.018573124,-0.01621731,0.00991627481,-2.70207977,19.4975052,-46.7082214,2
0.318342042,0.047898597,0.0102027953,0.00441667479,0.998790407,0.0200513094,0.0959184561,0.00788157572,0.195719191,-0.939197059,-9.75961002,-0.0653844542,-0.0186349232,0.0795534292,-0.0135718137,-0.0165833551,0.0147143994,-2.77899933,19.4256058,-46.7208557,2
0.328300042,0.0478315439,0.0101113471,0.00448596258,0.998794218,0.0198615114,0.0957848569,0.00803072194,0.193869325,-0.937892845,-9.75977251,-0.0475233832,-0.0193405142,0.0529307952,-0.0154264383,-0.0167782977,0.0129769538,-2.69713593,19.6340866,-46.6607971,2
0.338258042,0.0477370546,0.0100254811,0.00454173867,0.998799311,0.0196844097,0.0955960768,0.0081527108,0.192144328,-0.936050066,-9.75998353,-0.0588168393,-0.0570963174,0.0794780259,-0.0217203926,-0.0136649227,0.0094873216,-2.85124969,19.5041885,-46.7519836,2
0.348215042,0.0476161959,0.0100155224,0.00458085719,0.998804971,0.0196614405,0.0953547828,0.00823446408,0.191924584,-0.933694516,-9.76021324,-0.0988496293,-0.0396996308,0.116668816,-0.0248908866,0.0092348,0.00630697561,-2.81085205,19.4675827,-46.8591919,2
0.358173042,0.0475037263,0.0100650894,0.0046141455,0.998809674,0.019758457,0.0951306676,0.00829866514,0.19287562,-0.931506651,-9.7604038,-0.101147403,-0.0278216345,0.0966577087,-0.0208513904,0.00721275667,0.00417844579,-2.81085205,19.4675827,-46.8591919,2
0.368130042,0.0474107665,0.0100753595,0.00462206893,0.998813969,0.0197789134,0.0949447924,0.00831535972,0.193078704,-0.929692075,-9.76057272,-0.0962627911,-0.0263441093,0.110444242,-0.014165258,-0.00521754799,-0.00245761871,-2.89868927,19.4821701,-46.6601257,2
0.378088042,0.0473539691,0.0100287894,0.00460373207,0.998817255,0.0196875688,0.0948303304,0.00828408303,0.192189208,-0.928574616,-9.76069664,-0.0802599152,-0.0144430975,0.0478700047,-0.00939198211,-0.0133883599,-0.00411787722,-2.86531067,19.4651108,-46.5116272,2
0.388046042,0.0473079606,0.00994827037,0.0045993714,0.998820278,0.0195266922,0.0947374632,0.00828386723,0.190620625,-0.927668022,-9.76081355,-0.0364935282,-0.029714974,0.0264385096,-0.010254846,-0.0151825324,0.00569001306,-2.86079407,19.4300156,-46.6714783,2
0.398003042,0.0472613048,0.00988521375,0.0046485138,0.998822872,0.0193957809,0.0946444818,0.00838935167,0.189344505,-0.92676026,-9.76092461,0.0642916357,-0.0204473794,0.0150274733,-0.0111110862,-0.00467867963,0.0136161372,-2.87017822,19.4928207,-46.6222839,2
0.407961042,0.0472237965,0.00990126983,0.00470702377,0.998824188,0.019422694,0.0945706554,0.00850593794,0.189608526,-0.926039544,-9.76098773,0.0454724968,-0.0406209103,-0.0878594852,-0.00342573621,0.0152460262,0.00885120779,-2.89582825,19.4298325,-46.8512268,2
0.417919042,0.0472737863,0.0100406465,0.00475397818,0.998820238,0.0196976013,0.0946728562,0.00858597459,0.19229002,-0.92703725,-9.76084043,-0.0498346558,-0.0243601689,-0.194997671,0.0241175089,0.0422706418,0.00861895736,-2.80554199,19.5136948,-46.8268433,2
0.427876042,0.0474741879,0.0102700305,0.00480664251,0.998808078,0.0201515667,0.0950771128,0.00866595111,0.196713517,-0.930983869,-9.76037691,-0.0879265957,0.0196892545,-0.272974061,0.0520255715,0.049647864,0.00903867185,-2.71994019,19.6301498,-46.7442627,2
0.437834042,0.0477662372,0.0104976661,0.00485641308,0.99879159,0.0206016656,0.0956648442,0.00873828665,0.201095331,-0.936721317,-9.75973861,-0.135104782,0.047423503,-0.242487152,0.061308831,0.0446302965,0.0071018897,-2.72518921,19.5394974,-46.9354553,2
0.447792042,0.048015924,0.0106675622,0.00489100458,0.998777705,0.0209376189,0.0961669772,0.00878633658,0.204364251,-0.941622971,-9.7591991,-0.0934824214,0.0746210874,-0.149204473,0.0346447304,0.0271684825,0.00225893152,-2.78656006,19.5685043,-46.6806946,2
0.457749042,0.0480964835,0.0107334191,0.00490030208,0.998773007,0.0210683494,0.0963290412,0.00879699576,0.205636865,-0.943204906,-9.75901965,-0.0320568609,0.0919149712,-0.0144108027,-0.00321559166,0.00299664261,0.00149832806,-2.745224,19.5162582,-46.7813721,2
0.467707042,0.047995597,0.0107004115,0.00491307233,0.99877813,0.0210015558,0.0961270227,0.00882786236,0.204989014,-0.941232949,-9.75922365,0.0203655829,0.097724242,0.0692915629,-0.0398276635,-0.0101162298,0.00497907912,-2.71228027,19.5169296,-46.6609497,2
0.477665042,0.0477465228,0.0106413047,0.00494809594,0.998790555,0.0208812759,0.0956285447,0.00890887368,0.203824957,-0.936367023,-9.75971581,0.030956809,0.111113958,0.0648456894,-0.0586464293,-0.0137440953,0.00845854729,-2.70584869,19.4301682,-46.8139954,2
0.487622042,0.0474488962,0.0105882036,0.0049919622,0.998805086,0.0207725952,0.0950330901,0.00900796476,0.202775795,-0.930554099,-9.76029391,0.00147989983,0.0809101776,0.032951837,-0.0594267324,-0.0063058869,0.00654613134,-2.71581268,19.6098251,-46.6930237,2
0.497580042,0.0472247537,0.010590538,0.00502508726,0.998815511,0.0207757221,0.0945850383,0.00907870353,0.202814958,-0.926179903,-9.76070892,-0.0438994936,0.047506359,-0.0688350513,-0.0278836787,0.0116306897,0.00511569576,-2.59052277,19.6747513,-46.6607056,2
0.507538042,0.047209191,0.0106751731,0.00504261952,0.998815294,0.0209440175,0.09455502,0.0091061609,0.204458213,-0.925886838,-9.76070249,-0.105397754,0.00965425579,-0.147401223,0.024918817,0.0230841469,-0.000512629049,-2.6492691,19.6710129,-46.5902405,2
0.517495042,0.0474564764,0.010774342,0.00501983954,0.998802622,0.021143442,0.0950505364,0.0090459887,0.206395008,-0.930724414,-9.76020155,-0.101498664,0.032597909,-0.203567347,0.0733152106,0.0157930702,-0.00974568818,-2.6245575,19.460701,-46.6602478,2
0.527453042,0.0478749727,0.010807072,0.00494807938,0.998782649,0.0212130829,0.0958872019,0.00889029062,0.20705813,-0.938891939,-9.75940543,-0.112935712,0.0867042508,-0.0851022955,0.0918377563,-0.00179151457,-0.0193130951,-2.61373901,19.4680405,-46.6212463,2
0.537410042,0.0482783329,0.0107563796,0.00482752953,0.998764366,0.0211202629,0.096691807,0.00864501693,0.206136248,-0.946745867,-9.75866601,-0.110517472,0.0884230374,0.104048403,0.0682285801,-0.0201313756,-0.026074091,-2.72888947,19.3630447,-46.9273071,2
0.547368042,0.0484880626,0.0105838978,0.0046684853,0.998756737,0.0207881738,0.0971069237,0.0083383565,0.202887292,-0.9507977,-9.75834043,-0.0686619963,0.0959163888,0.231213479,0.0129453493,-0.0579495914,-0.0347765014,-2.68065643,19.5605698,-46.6508484,2
0.557326042,0.0483514093,0.0101872448,0.00446494224,0.998768503,0.0200126944,0.096825924,0.0079711728,0.195325186,-0.948054977,-9.75876129,-0.0067814403,0.134473718,0.33832653,-0.0693249777,-0.0982946008,-0.0404625088,-2.90952301,19.3959274,-46.7607727,2
0.567283042,0.0478069635,0.00975743597,0.0042347716,0.998799969,0.0191755137,0.0957279673,0.00756112245,0.187175125,-0.937337549,-9.75995664,0.0274055645,0.160716778,0.306750658,-0.144736364,-0.0622226186,-0.0461997539,-2.90210724,19.314827,-46.517334,2
0.577241042,0.0470122077,0.00967298033,0.00398750536,0.998839524,0.0190339967,0.094131395,0.00708769653,0.185822157,-0.92175098,-9.76146646,-0.00775306181,0.100687987,0.209051331,-0.164822206,0.0237609986,-0.0537828095,-2.81629944,19.4811478,-46.7802734,2
0.587199042,0.0462773685,0.00994881787,0.00377559739,0.99887194,0.0196111177,0.0926579841,0.00665044344,0.191482101,-0.907364728,-9.76270506,-0.0196977484,0.0343773398,0.0542173279,-0.120896034,0.0782109275,-0.0358469523,-2.7964325,19.532402,-46.6845703,2
0.597156042,0.0458753325,0.0103941122,0.0037026374,0.998886192,0.0205132605,0.091854556,0.00647068323,0.200304272,-0.899519348,-9.76325393,0.0588684416,-0.0113263537,-0.308254633,-0.0363120846,0.0968457907,-0.00261730142,-2.85224915,19.5756302,-46.7184448,2
0.607114042,0.0459003936,0.0108819923,0.00378311855,0.998879567,0.0214846325,0.0919096107,0.0065866319,0.209786861,-0.900056962,-9.7630055,0.122558641,-0.0678006667,-0.560941692,0.0458349809,0.0997393206,0.0245653167,-2.83420563,19.5823288,-46.6831055,2
0.617072042,0.0462700128,0.0113725386,0.00396296342,0.998856304,0.0224505121,0.09265685,0.00689407401,0.219201481,-0.907353695,-9.76212288,0.138881634,-0.122004916,-0.523815784,0.0999099985,0.100293636,0.0390180051,-2.75121307,19.4515457,-46.7923889,2
0.627029042,0.0468248675,0.0118627346,0.00420252238,0.998823811,0.0234089817,0.093776678,0.00731642888,0.228534158,-0.918287761,-9.76088661,0.0761283866,-0.121695192,-0.305683906,0.119838431,0.0969819948,0.0517977178,-2.76726532,19.3433609,-46.745697,2
0.636987042,0.0474055552,0.0122807455,0.00447966318,0.998790127,0.0242184965,0.09494903,0.0078194358,0.236409422,-0.92973343,-9.75961528,0.0715451322,-0.0503944086,-0.0139642279,0.109663971,0.074811317,0.0520016514,-2.64800262,19.3856125,-46.8969727,2
0.646945042,0.0478905267,0.0125811925,0.00470247646,0.99876227,0.0247973695,0.0959278841,0.00822618491,0.242036285,-0.939289048,-9.75856255,0.0380856928,0.0266476954,0.173376207,0.083358869,0.0514588617,0.0313320607,-2.72760773,19.330513,-46.8420105,2
0.656902042,0.0482322627,0.0127023567,0.00477945523,0.998743922,0.025031092,0.0966150171,0.00836066466,0.244300869,-0.945996291,-9.7578582,-0.0457314035,0.0867755625,0.216066763,0.0545889698,-0.00709358649,-0.000948357396,-2.75349426,19.339241,-46.911377,2
0.666860042,0.0484314722,0.0124862662,0.00470271142,0.998737384,0.024603635,0.0970101708,0.00822284527,0.240120569,-0.949853331,-9.75758699,-0.0657924139,0.173531909,0.127360306,0.0254441351,-0.0792964101,-0.0220421907,-2.65307617,19.3629837,-46.9503479,2
0.676818042,0.0484812189,0.0120151896,0.0045557098,0.998741451,0.0236721165,0.0971024037,0.00797257108,0.231029007,-0.950753568,-9.75771909,-0.000437076243,0.157672661,0.027384266,-0.00743955094,-0.107047893,-0.0255052391,-2.73061371,19.2196884,-46.7903442,2
0.686775042,0.0483551964,0.0114632977,0.00441551365,0.998754726,0.022578723,0.0968424961,0.00774779019,0.220365428,-0.94821667,-9.75821242,0.0236938871,0.0265972073,-0.0324257673,-0.0416795462,-0.115783595,-0.0200223234,-2.67784882,19.386467,-46.673645,2
0.696733042,0.048096693,0.0108988859,0.00431720436,0.998773899,0.0214568509,0.0963184077,0.00761077064,0.209428457,-0.943101081,-9.75894892,0.00470330059,-0.066206091,-0.0613175153,-0.0598778948,-0.110240102,-0.00968301203,-2.73000336,19.4237595,-46.8319397,2
0.706691042,0.0478156158,0.0104310074,0.0042615234,0.998792565,0.0205247409,0.0957509113,0.00754988021,0.200342905,-0.937561494,-9.75967314,0.00196751895,-0.0168287505,-0.0674766224,-0.0504963771,-0.0753875747,-0.00667497143,-2.90058136,19.48806,-46.56604,2
0.716648042,0.0476365483,0.0101323493,0.00420668571,0.998804522,0.0199316132,0.0953890398,0.00747201073,0.194560887,-0.934028936,-9.76012907,-0.0521055234,0.0403915586,-0.0855763427,-0.0195532274,-0.0454200469,-0.00994183309,-2.90058136,19.48806,-46.56604,2
0.726606042,0.0476039231,0.00998986393,0.00412635491,0.998807837,0.0196535263,0.0953210705,0.00732507604,0.191847957,-0.93336543,-9.76024656,-0.0974262454,0.0563378272,-0.0845610282,0.00685281446,-0.0107875019,-0.0196740888,-2.92141724,19.338768,-46.5363464,2
0.736563042,0.0476922093,0.0100494968,0.0040005269,0.998803521,0.0197847871,0.0954957783,0.00706516451,0.193125868,-0.935070919,-9.76005776,-0.117558513,0.0926096754,-0.0923807621,0.0256666448,0.0307400301,-0.0294770338,-2.89894867,19.3785782,-46.5585632,2
0.746521042,0.0478418613,0.0102730497,0.0038481936,0.998794705,0.0202473313,0.095793902,0.00673507632,0.197634651,-0.93798118,-9.75968834,-0.110994094,0.0835488555,-0.0435199928,0.0345141962,0.0517976433,-0.0341868363,-2.83242035,19.4212418,-46.6675415,2
0.756479042,0.0480037468,0.0105565122,0.00367609641,0.998784683,0.0208320854,0.0961163521,0.00635914737,0.203335328,-0.941128758,-9.75926807,-0.113702038,0.0878936067,0.0162146372,0.0283787623,0.057396125,-0.0409961157,-2.71141052,19.4394608,-46.5687561,2
0.766436042,0.0480996583,0.0108428957,0.00349239695,0.998777562,0.0214242239,0.096306257,0.0059608331,0.209110295,-0.942982496,-9.75896704,-0.0959838828,0.0761302498,0.0537719222,0.00762181729,0.051229842,-0.0374756828,-2.77311707,19.4012985,-46.678894,2
0.776394042,0.0480615765,0.0110392122,0.00333615547,0.99877778,0.0218334932,0.0962277656,0.00562910366,0.21310594,-0.942216334,-9.75895477,-0.0618219577,0.0572579377,0.142943075,-0.0213811398,0.0224042106,-0.0270349775,-2.8316803,19.3646927,-46.7382507,2
0.786352042,0.0478844491,0.0110947649,0.00322404927,0.998786036,0.0219564109,0.0958709731,0.0054025727,0.21431285,-0.938733533,-9.75926398,-0.00960820643,0.075322952,0.171683431,-0.0491584428,0.00159666641,-0.0219371542,-2.66674042,19.3832779,-46.6057739,2
0.796309042,0.047607615,0.0110835716,0.00310516483,0.998799798,0.0219462456,0.0953140371,0.00517104522,0.214225081,-0.933296749,-9.75978713,0.00484473662,0.0685394293,0.0574351209,-0.0581998788,-0.00937635265,-0.0268831495,-2.84912109,19.4288559,-46.7117615,2
0.806267042,0.0473158812,0.0110069194,0.00297869084,0.998814862,0.0218053491,0.0947267861,0.00493084317,0.212861884,-0.927563758,-9.76036347,-0.0127960427,0.0776205614,-0.024139585,-0.0568227582,-0.0216921419,-0.0245691277,-2.71709442,19.5595016,-46.7167053,2
0.816225042,0.0470670142,0.0108932035,0.00286260342,0.998828182,0.0215888452,0.0942254536,0.00471400522,0.21075872,-0.922669337,-9.76087317,0.0491621634,0.094423593,-0.038145314,-0.0426050946,-0.0250734333,-0.021231059,-2.82115173,19.4350662,-46.7788086,2
0.826182042,0.0468910629,0.0107716921,0.00275909872,0.998838183,0.0213552349,0.0938704066,0.00452151584,0.208485459,-0.919202903,-9.76124902,0.0256977742,0.0334963191,-0.0739817665,-0.0266990997,-0.0228459667,-0.0205873735,-2.75816345,19.5755234,-46.6870422,2
0.836140042,0.0467937408,0.0106867333,0.00267359585,0.998843911,0.0211930346,0.0936733627,0.00435999399,0.206906008,-0.917279023,-9.76146354,0.0446351875,0.0228934574,-0.100102881,-0.0123257674,-0.0108570419,-0.0132795293,-2.83418274,19.541008,-46.6416321,2
0.846098042,0.0467394794,0.0107059511,0.00261704566,0.998846367,0.0212370396,0.0935636061,0.00424585551,0.207337714,-0.916207375,-9.76155531,0.0908904139,0.0275080385,-0.118716396,-0.010373137,0.0140182134,-0.0105031831,-2.85929108,19.5875931,-46.4544067,2
0.856055042,0.0467059248,0.0107944903,0.00256715795,0.998847049,0.0214194677,0.0934957279,0.00413814829,0.209119812,-0.915544673,-9.76157927,0.0524470851,0.0437544591,-0.0836766466,-0.00292566046,0.0196489245,-0.0116265872,-2.91740417,19.4756241,-46.633728,2
0.866013042,0.0467068141,0.0109037654,0.00250418857,0.998846016,0.0216446582,0.0934965996,0.00400152506,0.211318016,-0.915553149,-9.76153134,0.017927195,0.0783291481,-0.137893974,0.00387232425,0.0219203345,-0.0140865482,-2.83294678,19.5479813,-46.7206421,2
0.875971042,0.0467498473,0.0110014205,0.00242343003,0.998843107,0.021848124,0.0935813773,0.00382938827,0.213302449,-0.916380905,-9.76141034,0.0178880138,0.0525214837,-0.228694774,0.0136319175,0.013633877,-0.0173560679,-2.87303162,19.440834,-46.740387,2
0.885928042,0.0468327883,0.0110532774,0.00233321899,0.998838904,0.0219605287,0.0937456509,0.00364170659,0.214396364,-0.917984833,-9.76123557,0.0072172927,0.0259935423,-0.210164845,0.021515673,0.00587395718,-0.0188399814,-2.87197113,19.5249557,-46.9081116,2
0.895886042,0.046940661,0.011064752,0.00225139506,0.998833841,0.0219911006,0.093959856,0.00347409674,0.214690451,-0.920076252,-9.76103216,0.0141058284,0.0195555451,-0.137345108,0.0226908401,-0.00345379952,-0.0144422892,-2.92489624,19.4264908,-46.6736755,2
0.905844042,0.0470284717,0.0110640054,0.00218911463,0.998829876,0.0219953639,0.094134289,0.00334728554,0.214728537,-0.921779257,-9.76087083,0.056115928,0.041908539,-0.035903088,0.0135378214,0.00256814016,-0.00937455986,-2.82738495,19.4938583,-46.6211243,2
0.915801042,0.0470559087,0.0111282604,0.0021331813,0.99882801,0.0221295647,0.0941881986,0.00322837679,0.216037354,-0.922305618,-9.76079192,0.0501683265,0.0214855634,0.0448228921,-0.00359755638,0.0209299959,-0.0135202548,-2.92002106,19.3793106,-46.7876282,2
0.925759042,0.0469918037,0.0112667618,0.00206248101,0.998829644,0.0224142573,0.0940587169,0.00307483985,0.218818838,-0.921041444,-9.76084979,-0.00259211712,0.0127395815,0.132717449,-0.0207424536,0.0303080492,-0.0179853104,-2.89578247,19.5181351,-46.7854919,2
0.935717042,0.0468644252,0.0114693535,0.00198473277,0.998833507,0.0228282548,0.0938025431,0.0029025904,0.222865173,-0.918540275,-9.76099358,-0.0474895357,0.0470492629,0.123135381,-0.0271149259,0.0492731072,-0.0188790467,-2.93655396,19.3216171,-46.8147888,2
0.945674042,0.0467555883,0.0117149801,0.00188238369,0.99883597,0.0233308589,0.0935829675,0.00267661876,0.227775759,-0.916396468,-9.76108184,-0.0841232944,0.0923406492,0.0168313078,-0.0132624935,0.0473471098,-0.0265289769,-2.93473816,19.40905,-46.651886,2
0.955632042,0.0467302299,0.0119408708,0.00175045554,0.998834609,0.0237965555,0.0935296492,0.00239128577,0.232322591,-0.915875878,-9.76102339,-0.134908127,0.0978054905,-0.111466571,0.00395322405,0.0406078883,-0.0276976805,-2.7635498,19.4111252,-46.6531372,2
0.965589042,0.0467821471,0.0121421897,0.00162844651,0.998829936,0.0242120091,0.0936311111,0.00212632214,0.236375574,-0.916866496,-9.76083342,-0.110081035,0.115256245,-0.175851657,0.0182115212,0.0370744094,-0.0237194505,-2.73042297,19.5577164,-46.5946045,2
0.975547042,0.0468946169,0.0123099798,0.0015365198,0.998822872,0.0245574064,0.0938543886,0.00192334467,0.239741891,-0.919046471,-9.76054642,-0.0251612014,0.0919978272,-0.145612586,0.024570426,0.028656099,-0.0159623437,-2.6661377,19.5864792,-46.7438354,2
0.985505042,0.0470023054,0.0124801778,0.00148421089,0.998815718,0.0249039417,0.0940690036,0.00179966979,0.243119331,-0.921141835,-9.76026527,0.0331120691,0.0468077092,-0.0781079066,0.0186142661,0.0395617411,-0.00979046896,-2.60944366,19.4157791,-46.8346558,2
0.995462042,0.0470793018,0.0126972248,0.0014633076,0.998809404,0.0253415399,0.0942230151,0.00173527587,0.247386798,-0.922645518,-9.76001567,0.0454543766,0.0290081409,0.0127723878,0.0134581728,0.0464620031,-0.00362010836,-2.69142914,19.4310684,-46.926239,2
1.00542004,0.0471443573,0.0129299495,0.00145033874,0.998803409,0.0258098589,0.0943533305,0.00168555634,0.251954452,-0.923917803,-9.75977836,0.0633323805,0.038510494,0.0165752872,0.0135809444,0.0479272716,-0.00678713946,-2.8012085,19.4153976,-46.7171326,2
1.01537804,0.0472203382,0.0131832038,0.0014157716,0.998796528,0.026321449,0.0945049593,0.00159020142,0.256943749,-0.925398105,-9.75950831,0.0204847523,0.0025813948,-0.00793663822,0.0178456586,0.0530906729,-0.0104847886,-2.75447845,19.3110123,-46.7002258,2
1.02533504,0.0473085681,0.0134420971,0.00138575187,0.998788892,0.02684396,0.0946811982,0.0015030269,0.26203877,-0.927118718,-9.75920962,-0.00540991449,0.00894077376,-0.0197574244,0.0193050709,0.0500115231,-0.00423328346,-2.74828339,19.4151535,-46.4537354,2
1.03529304,0.0473617213,0.0136298306,0.00139810535,0.998783815,0.0272196109,0.094788232,0.00150851789,0.265702115,-0.928163697,-9.75901088,0.0708332576,0.0620595658,0.0195487501,0.00165308535,0.0295887161,0.00487089204,-2.64090729,19.4539566,-46.6871033,2
1.04525104,0.0472586481,0.0137035387,0.00142286822,0.998787697,0.0273650772,0.0945826671,0.00155401156,0.267126924,-0.926156814,-9.75916286,0.0946971675,0.0394028398,0.118461544,-0.0401952937,0.00470759999,0.00376248406,-2.64795685,19.5811996,-46.6509399,2
1.05520804,0.0469484424,0.0136299622,0.00142161355,0.998803279,0.0272172208,0.0939614689,0.00156692612,0.265699576,-0.920091961,-9.75977544,0.0652991871,0.0140347359,0.176684601,-0.0798656195,-0.0278519876,-0.00394716859,-2.61138153,19.6428909,-46.6885376,2
1.06516604,0.0465201593,0.0134408186,0.00136043334,0.998826034,0.026842967,0.0931021065,0.00147351657,0.262068051,-0.911701369,-9.76066099,0.0162582572,0.031830651,0.0502285505,-0.0846435949,-0.047248058,-0.0174989309,-2.61138153,19.6428909,-46.6885376,2
1.07512404,0.0461585444,0.0132067241,0.00125043985,0.998846085,0.0263830648,0.0923749095,0.00128426341,0.257596495,-0.904600597,-9.76144074,-0.0255082065,0.0479237076,-0.154893625,-0.0590726472,-0.047092855,-0.021547351,-2.72312164,19.598732,-46.6012878,2
1.08508104,0.0459569302,0.0130353658,0.00113493164,0.998857708,0.0260496568,0.0919680477,0.0010736773,0.254351504,-0.900627601,-9.76189316,-0.0685012345,0.025994273,-0.230306885,-0.0199135263,-0.020838879,-0.0217161961,-2.7508316,19.5776596,-46.5490723,2
1.09503904,0.0459666675,0.0130526682,0.00103123453,0.998857153,0.0260939612,0.0919848524,0.000863788527,0.254783611,-0.900791706,-9.76186686,-0.0708785946,-0.00855761966,-0.264600785,0.024001522,0.0236875862,-0.0203291383,-2.77454376,19.6620407,-46.3976746,2
1.10499704,0.0461699917,0.0132793153,0.000956554588,0.998844862,0.0265559909,0.092390106,0.00068762022,0.259284138,-0.904748992,-9.76138229,-0.0604154153,0.0048269087,-0.192211256,0.0571387,0.064152196,-0.0115311202,-2.76237488,19.6743698,-46.4681396,2
1.11495404,0.0464945701,0.0136569123,0.000931678573,0.998824708,0.0273166151,0.0930394706,0.000593790834,0.266692697,-0.911089739,-9.76059318,-0.0307138123,0.0490258967,-0.0273521173,0.0696502775,0.082506977,-0.0052078655,-2.6993866,19.6458359,-46.5392761,2
1.12491204,0.0468060599,0.0140433698,0.000925184772,0.998804901,0.0280933822,0.0936631171,0.000535877427,0.27425831,-0.917178996,-9.75981285,-0.0161330599,0.0642430473,0.0742202515,0.0544723943,0.0694556236,-0.00227359449,-2.65932465,19.5318222,-46.6008911,2
1.13487004,0.046985615,0.0143201,0.000920528078,0.998792513,0.0286495572,0.0940225945,0.000495343584,0.279676974,-0.920688758,-9.75932886,-0.000602441139,0.0451575308,0.107853056,0.016731197,0.0406480543,-0.00219478458,-2.71577454,19.5299606,-46.6704102,2
1.14482704,0.0469693971,0.0144422632,0.000917742961,0.998791559,0.0288949494,0.0939901092,0.000478691931,0.282072692,-0.920371582,-9.7592897,0.0110677576,0.0304752178,0.0789344205,-0.0231104903,0.00926989317,-0.00125282444,-2.64803314,19.5687943,-46.5926514,2
1.15478504,0.0467773686,0.0144135301,0.00090135296,0.998801027,0.0288383989,0.0936051849,0.000454078368,0.281530986,-0.916613398,-9.75965912,-0.0139785853,0.0497611522,0.0730184745,-0.0523490831,-0.0206923634,-0.00840700977,-2.606987,19.4799881,-46.4039612,2
1.16474304,0.0464986224,0.0142757552,0.000828371156,0.998816043,0.0285681125,0.0930449874,0.00032859627,0.278907707,-0.911143588,-9.76024656,-0.0554983807,0.0863395822,-0.0110889648,-0.05653584,-0.0356721096,-0.0199006796,-2.59489441,19.3552017,-46.7400818,2
1.17470004,0.0462535321,0.0140585958,0.000700711163,0.99883057,0.0281436369,0.0925506548,9.96906889E-05,0.274777329,-0.906316753,-9.76081296,-0.0732150747,0.0509865293,-0.167043497,-0.0392340422,-0.0527911559,-0.0272034612,-2.55057526,19.59095,-46.520874,2
1.18465804,0.0461322151,0.0137825685,0.000558600722,0.998840112,0.0276026192,0.0923038273,-0.000156401009,0.269502676,-0.903906477,-9.76118355,-0.0383122133,0.0385506799,-0.260196412,-0.010345933,-0.0559930727,-0.025253227,-2.63041687,19.6934662,-46.7338562,2
1.19461504,0.0461368762,0.0135232462,0.000425670207,0.998843528,0.027094592,0.0923095933,-0.000399184353,0.264543556,-0.90396281,-9.7613139,0.0200675498,0.025438831,-0.322314722,0.0113608995,-0.0503161252,-0.0201812163,-2.6701889,19.6474457,-46.6907043,2
1.20457304,0.0462203035,0.0132943824,0.000337643285,0.99884274,0.0266437625,0.0924743494,-0.000556814827,0.260138873,-0.905571634,-9.7612835,0.073852642,-0.00123385264,-0.279100434,0.0197128393,-0.0414523259,-0.0107629485,-2.79283142,19.6093597,-46.5812073,2
1.21453104,0.0463333773,0.013142489,0.000313355783,0.998839495,0.0263415694,0.092700161,-0.000594439854,0.257183677,-0.907776596,-9.76115666,0.104191538,0.00396386213,-0.209196293,0.0278591905,-0.0193968304,0.00439759996,-2.78346252,19.5586395,-46.5688782,2
1.22448804,0.0465070842,0.0130821879,0.000332809577,0.998832312,0.0262192806,0.0930484758,-0.000554385148,0.255981699,-0.91117771,-9.76087141,0.0893822561,0.0301098916,-0.179404381,0.0430927388,-0.00880943239,0.00259517273,-2.73360443,19.5259094,-46.6995544,2
1.23444604,0.0467400328,0.0130354582,0.000310352704,0.998822023,0.0261283153,0.0935142757,-0.000601208136,0.255082668,-0.915725729,-9.76046926,0.0510762534,0.049472033,-0.16559096,0.0515954681,-0.0102152042,-0.00864152238,-2.74102783,19.4848938,-46.6930542,2
1.24440404,0.0469841495,0.0130013647,0.000253794994,0.998811032,0.0260659814,0.0940015495,-0.000717899158,0.254462599,-0.920483298,-9.76003789,0.0361340107,0.0564741669,-0.102875268,0.0458994992,-0.00445025973,-0.010670851,-2.67634583,19.5227356,-46.577179,2
1.25436104,0.0471671344,0.0129833226,0.000212204705,0.998802573,0.0260342946,0.0943668159,-0.000804450318,0.254144565,-0.924049466,-9.75970939,0.0814929459,0.0440291844,0.00378711732,0.0271163136,-0.00616663042,-0.00423001079,-2.86341095,19.4538727,-46.6719971,2
1.26431904,0.0472402032,0.0129060673,0.0001964041,0.998800194,0.0258809921,0.0945127636,-0.00083074128,0.252644882,-0.925474312,-9.75961352,0.135066532,-0.0437300553,0.0803051243,0.00154623983,-0.0243067518,-0.000699990895,-2.97748566,19.44664,-46.3540039,2
1.27427704,0.047168229,0.0127268533,0.000175131776,0.998805836,0.0255231102,0.0943682643,-0.000854563369,0.249155488,-0.924063568,-9.75983681,0.177760979,-0.0774625213,0.0616740736,-0.0312266611,-0.0487964042,-0.00398274325,-2.96047974,19.392395,-46.5562439,2
1.28423404,0.0469235433,0.0124115907,0.000138564514,0.998821406,0.0248930918,0.0938777492,-0.000891916696,0.243017825,-0.91927458,-9.76044354,0.190482697,-0.00877944572,0.042978141,-0.0649111271,-0.0755904689,-0.00657719467,-2.92567444,19.4855804,-46.4830017,2
1.29419204,0.0465338767,0.0119762455,8.27737052E-05,0.998844903,0.0240234509,0.0930966533,-0.000953374674,0.234546824,-0.911648104,-9.76136592,0.156306999,0.0488360732,0.00963350526,-0.0901804417,-0.101027444,-0.0110203251,-2.95891571,19.3530731,-46.377655,2
1.30415004,0.0460555889,0.0114321193,1.02263436E-05,0.998873415,0.0229368319,0.0921379513,-0.00103699514,0.223959745,-0.902286694,-9.7624847,0.148488635,-0.0106539344,-0.0604758038,-0.100937746,-0.114169613,-0.0128536457,-3.09714508,19.4408875,-46.3725281,2
1.31410704,0.0455450256,0.0108377896,-7.01032933E-05,0.998903457,0.0217501255,0.0911146657,-0.00113196336,0.212394358,-0.892293854,-9.76366134,0.14329461,-0.0550633502,-0.109576812,-0.102164522,-0.126114011,-0.00962646119,-3.13208771,19.3414764,-46.3172302,2
1.32406504,0.0450469871,0.0102357318,-0.00012730662,0.998932398,0.0205458885,0.0901171088,-0.00118131297,0.200654619,-0.882551262,-9.76479531,0.171943397,-0.0643571022,-0.015368834,-0.0972081125,-0.116450727,-0.00321383541,-3.12444305,19.598526,-46.2470703,2
1.33402304,0.0445913084,0.00969117135,-0.000162137679,0.99895827,0.0194551899,0.0892048309,-0.00119296522,0.190019646,-0.87364081,-9.76580887,0.158786011,-0.0548621286,0.0646539662,-0.0848701224,-0.102293335,-0.00364933535,-3.18543243,19.5847778,-46.229248,2
1.34398004,0.044216741,0.0092051232,-0.000203729867,0.998979583,0.0184827848,0.0884547958,-0.00122587802,0.180535303,-0.866314486,-9.76664181,0.0696591724,-0.0202899238,0.109779056,-0.0632689595,-0.095591493,-0.00741397962,-3.32726288,19.5439148,-46.2082825,2
1.35393804,0.0439706377,0.00870953009,-0.000290222381,0.998994865,0.0174956029,0.0879612118,-0.00135101207,0.170901213,-0.861492911,-9.76724153,0.0029780477,0.038783758,0.0940682768,-0.0345012024,-0.104381964,-0.0206519123,-3.16166687,19.4716034,-46.3496094,2
1.36389604,0.0439062197,0.00816827332,-0.00043445871,0.999002214,0.0164224348,0.0878306044,-0.00159146159,0.160421083,-0.860217046,-9.76753146,-0.0499881293,0.127290455,-0.0341799175,0.0107925087,-0.114494786,-0.0282733478,-3.22104645,19.6266937,-46.1616211,2
1.37385304,0.0440737641,0.00760628106,-0.000642820519,0.998999111,0.0153140737,0.0881636927,-0.00196245235,0.149590632,-0.86347086,-9.76741631,-0.101706197,0.131292457,-0.212064542,0.0554372668,-0.111012861,-0.0443444811,-3.23511505,19.5274963,-46.2661438,2
1.38381104,0.044432604,0.00706368958,-0.000894676151,0.998987027,0.014249299,0.0888795227,-0.0024248296,0.139181603,-0.870463276,-9.76694986,-0.101023631,0.0802254832,-0.296927183,0.0890748575,-0.111001141,-0.0435452648,-3.39163208,19.541214,-46.3332825,2
1.39376904,0.0449139048,0.0065540554,-0.00111477608,0.998968736,0.0132485485,0.0898413708,-0.00282739605,0.129396104,-0.87985815,-9.76624259,-0.0322808972,0.0520613189,-0.286261997,0.0995476916,-0.0939265639,-0.0317608863,-3.39261627,19.4365692,-46.4951782,2
1.40372604,0.0453585915,0.00620110907,-0.00124655455,0.9989507,0.0125542554,0.0907309667,-0.00306565477,0.122605567,-0.888546557,-9.7655435,0.0363099518,0.0471327034,-0.131936527,0.0766921788,-0.0478078052,-0.0132061131,-3.45788574,19.3399353,-46.2022705,2
1.41368404,0.0456490808,0.0061005613,-0.00127786792,0.998938138,0.0123566256,0.0913124646,-0.00312300782,0.120669201,-0.894225479,-9.76504899,0.0518633578,0.025577655,0.0351636678,0.039694272,0.00699776318,0.00315766083,-3.45788574,19.3399353,-46.2022705,2
1.42364104,0.0457798869,0.00622964886,-0.00121811437,0.998931443,0.0126106866,0.0915746962,-0.00301665517,0.123147154,-0.896786343,-9.76478304,0.0631520372,0.0260435189,0.0978951416,0.0158754904,0.0435688272,0.0178127699,-3.43265533,19.3400726,-46.3169861,2
1.43359904,0.0458327988,0.00650767413,-0.00109500798,0.998927356,0.0131573984,0.0916814049,-0.00279594271,0.128484396,-0.897828399,-9.76461878,0.0539242358,0.0742215666,0.111647188,0.0108859185,0.0703135729,0.0276131351,-3.52357483,19.2731323,-46.3463135,2
1.44355704,0.045920504,0.00690799694,-0.000926814211,0.998920784,0.0139454471,0.0918582146,-0.00249659358,0.136177133,-0.899555077,-9.76435575,0.0330634076,0.0814846895,0.0660433748,0.0245186407,0.0952295735,0.0334830098,-3.51813507,19.3009644,-46.2750854,2
1.45351442,0.0460930042,0.00745111943,-0.00071087038,0.998909138,0.0150158628,0.0922054499,-0.00211606924,0.146624275,-0.902945888,-9.76389164,-0.0104536808,0.0326519042,0.0666267276,0.0423796587,0.127192572,0.0448097289,-3.48535156,19.3463898,-46.3397217,2
1.46347242,0.0463161044,0.00810867582,-0.000441731742,0.998893833,0.016311016,0.092655095,-0.00164064893,0.159263236,-0.907336524,-9.76328607,-0.0398520631,8.21253255E-05,0.0955003554,0.0444899462,0.137529895,0.0521768294,-3.36125183,19.2886047,-46.5381775,2
1.47343042,0.0465062204,0.00875658138,-0.000126956317,0.998879634,0.0175822976,0.0930401847,-0.00107273909,0.171668837,-0.911096754,-9.7627261,-0.0164942761,0.0306274857,0.169908238,0.0300888475,0.126528785,0.060559649,-3.27767181,19.2419586,-46.3662109,2
1.48338742,0.0465916774,0.00930336032,0.000209266028,0.998870647,0.0186482455,0.0932169529,-0.0004508162,0.182072285,-0.912822701,-9.76237597,-0.00355424015,0.0613831279,0.257545605,0.00478935055,0.0985376388,0.0626329258,-3.21075439,19.241333,-46.3391418,2
1.49334542,0.0465597724,0.00968178396,0.000534127135,0.998868516,0.0193771508,0.0931592149,0.000166202927,0.189189113,-0.912258929,-9.76229356,0.0241944753,0.107955275,0.247138193,-0.017469421,0.0600345172,0.0583621636,-3.17494202,19.4016571,-46.3360291,2
1.50330342,0.0464194278,0.00985312681,0.00081210095,0.998873205,0.0196948183,0.0928837484,0.000710682264,0.192295208,-0.909569252,-9.76248411,0.0406909251,0.12741189,0.175801388,-0.0384833626,0.0152987391,0.0487489514,-3.26400757,19.3690948,-46.3234253,2
1.51326042,0.0461766056,0.00982156944,0.00102220097,0.998884581,0.0196117405,0.0924017106,0.00113993128,0.191492732,-0.904862316,-9.76293712,0.048526368,0.110285033,0.122534493,-0.0595021471,-0.0224348065,0.038808085,-3.27094269,19.442627,-46.3365173,2
1.52321842,0.0458314398,0.00959397774,0.00119764348,0.998902362,0.0191387135,0.0917137671,0.00151963342,0.186886444,-0.898144479,-9.76364672,0.112089872,0.0498472961,0.0491734885,-0.0789831728,-0.0628562644,0.0370008647,-3.22279358,19.3680878,-46.4830017,2
1.53317642,0.045391933,0.00920696178,0.00135681864,0.998925966,0.0183476374,0.0908362121,0.00188264198,0.179177002,-0.889574438,-9.76457553,0.17696086,0.0146418349,0.00431377155,-0.0968704522,-0.0875060931,0.0347489864,-3.12084198,19.4226227,-46.3946838,2
1.54313342,0.0448898903,0.00879538947,0.00152655815,0.998952041,0.0175067737,0.0898333258,0.00226942156,0.170981786,-0.879779532,-9.76561013,0.160914803,-0.0193944363,0.00145721307,-0.104917459,-0.0676474348,0.040937908,-3.2862854,19.2829437,-46.4336243,2
1.55309142,0.0443892636,0.00857516254,0.00175465357,0.998976018,0.0170450218,0.088834507,0.00275529147,0.166487379,-0.87002357,-9.76656174,0.121116497,-0.0670087127,-0.0264712428,-0.0935617685,-0.0156632494,0.0529394411,-3.3952179,19.5164948,-46.2013245,2
1.56304942,0.0440100941,0.008593173,0.00204971749,0.998992071,0.0170555478,0.0880805439,0.00335193064,0.166601324,-0.862658594,-9.76721289,0.0786550921,-0.117618883,-0.0844774416,-0.0572522283,0.0267984569,0.0629915446,-3.38157654,19.5426788,-46.2825928,2
1.57300642,0.043852182,0.00881524554,0.00237667567,0.998996407,0.0174724965,0.0877708969,0.00399081818,0.170678401,-0.859633766,-9.76740929,0.0605120806,-0.101639808,-0.164786658,-0.00539489649,0.0682391077,0.062190488,-3.36445618,19.5988312,-46.129425,2
1.58296442,0.043944394,0.00921957625,0.00268168013,0.998987833,0.0182563928,0.0879626682,0.00456530052,0.178331966,-0.861507086,-9.76710768,-0.00714618196,-0.0304842048,-0.1707745,0.038563773,0.0954227969,0.0524150915,-3.2052002,19.5265808,-46.2461548,2
1.59292242,0.0441982681,0.00968311008,0.0029139041,0.998971549,0.0191648573,0.0884774482,0.00498538248,0.187196441,-0.866535727,-9.76649685,-0.0722743964,0.0544508444,-0.0712777683,0.0591377728,0.0889394283,0.0319517627,-3.04075623,19.7206116,-46.4339905,2
1.60287942,0.0444870118,0.0100609115,0.00303760784,0.998954684,0.0199107419,0.0890598251,0.00519431477,0.194470981,-0.872224441,-9.76584803,-0.129228638,0.114308443,-0.00803074624,0.052858036,0.0617078021,0.0116944294,-3.01641846,19.6850052,-46.3866272,2
1.61283742,0.0446542385,0.0102610648,0.00307652816,0.998945094,0.0203082058,0.0893964262,0.00525115831,0.198346562,-0.87551223,-9.76547628,-0.144327021,0.120588912,0.0767407099,0.00974115171,0.017364556,0.0030323572,-3.06684113,19.6182938,-46.1967773,2
1.62279542,0.0445372394,0.0102651917,0.00310506647,0.998950145,0.020314335,0.0891628057,0.0053103662,0.198410567,-0.87323033,-9.76567911,-0.0763058986,0.108879842,0.133207278,-0.056617368,-0.0129278377,0.00707929675,-3.04218292,19.5633926,-46.3993225,2
1.63275242,0.0441305322,0.0101395828,0.00315840983,0.998969351,0.0200590754,0.0883490389,0.00543660961,0.195931975,-0.865281417,-9.76643665,-0.0076874675,0.0311998057,0.113464467,-0.105382927,-0.0362309031,0.0163125396,-2.99315643,19.6375198,-46.416687,2
1.64271042,0.0435717046,0.00994512268,0.00327126913,0.998995415,0.0196612132,0.0872315195,0.005690983,0.192065143,-0.85436452,-9.76747417,0.0241615776,-0.0304442381,0.0326508082,-0.116926134,-0.0354591198,0.0301777534,-3.00453949,19.6744308,-46.2420959,2
1.65266842,0.0430534988,0.00983066946,0.00344608686,0.999018449,0.0194186186,0.0861969334,0.00606146038,0.189712662,-0.844256822,-9.76839947,0.0723031658,0.0148139036,-0.133868957,-0.0884094983,-0.00406772085,0.0391698964,-3.19927216,19.6155624,-46.2948914,2
1.66262542,0.0427390185,0.00990416325,0.0036411917,0.999030552,0.0195506587,0.0855716916,0.00645238913,0.191012767,-0.838147837,-9.76889982,0.0497545033,0.00795687729,-0.289140767,-0.0387716405,0.0376230031,0.0376329869,-3.04441833,19.6661606,-46.4657898,2
1.67258342,0.0426739289,0.010128854,0.00382780011,0.999030372,0.019985611,0.0854465827,0.00680859361,0.195263848,-0.836925456,-9.76892087,0.00749547032,0.045191287,-0.30842356,0.0114641711,0.0532128178,0.0327696353,-3.07590485,19.7359695,-46.210144,2
1.68254142,0.0428113299,0.0103845969,0.00398584957,0.999021294,0.0204842387,0.0857266062,0.00710087621,0.200130066,-0.839661457,-9.76858769,-0.0195170946,0.0937164676,-0.263566181,0.0406942293,0.0511355549,0.0242128968,-2.98622131,19.7893295,-46.2525635,2
1.69249842,0.0430286093,0.0106015997,0.00408906575,0.999009329,0.0209093907,0.0861652475,0.00728477565,0.204275459,-0.843947244,-9.76813235,-0.0624186266,0.0948597925,-0.153888247,0.0449435003,0.0333753563,0.0129890535,-3.00531769,19.7449265,-46.1986084,2
1.70245642,0.0431996353,0.0106908763,0.00414489068,0.999000631,0.0210826657,0.0865094148,0.00738549865,0.205961896,-0.84730978,-9.7678056,-0.0992699188,0.069042995,-0.00786883368,0.0224136915,0.00299321627,0.011362928,-2.82266998,19.8717422,-46.1818237,2
1.71241342,0.043243704,0.0106431278,0.00420594474,0.998998946,0.020981343,0.0865985559,0.00751118932,0.20497062,-0.848180644,-9.76775124,-0.0560808385,0.056895388,0.0912859526,-0.00518617872,-0.0202864334,0.0133386776,-2.85186768,19.8264236,-46.1286316,2
1.72237142,0.0431748922,0.0104975458,0.00426698576,0.999003267,0.0206844464,0.0864609854,0.00764764607,0.202072998,-0.846836609,-9.76792776,-0.018467275,0.0346020884,0.0609369915,-0.0222647637,-0.0356515385,0.0118560959,-2.77031708,19.8124619,-45.9769287,2
1.73232942,0.0430532279,0.0102999342,0.00431570006,0.999010421,0.020284604,0.0862169234,0.0077648873,0.198171534,-0.844452125,-9.76821418,-0.017408925,0.00408573494,0.0440150828,-0.0239893552,-0.0398655199,0.0106766988,-2.76834869,19.8586655,-46.3561401,2
1.74228642,0.042973174,0.01012465,0.00434834393,0.999015515,0.0199307094,0.0860559632,0.00784706795,0.19471732,-0.842879469,-9.76841993,-0.0157503624,0.0180753896,-0.0244634101,-0.00730065443,-0.027795542,0.00390188373,-2.94426727,19.7991257,-46.4013977,2
1.75224442,0.0429952976,0.0100322055,0.00430111686,0.999015639,0.0197492389,0.0860985836,0.0077599125,0.192943917,-0.843295868,-9.76841876,-0.0516856722,0.0172946875,-0.184576231,0.0165160261,-0.01597891,-0.0200330354,-3.02859497,19.5846329,-46.4624329,2
1.76220242,0.0431061356,0.00997091291,0.00415306588,0.999012095,0.0196384516,0.0863170677,0.00746617676,0.191858077,-0.845430542,-9.76825568,-0.10895846,-0.00735576959,-0.245492179,0.0296102576,-0.00584105402,-0.0330724046,-3.12940216,19.4962387,-46.3197021,2
1.77215942,0.0432397951,0.0100247739,0.00401824396,0.999006405,0.0197574206,0.0865823655,0.00718855394,0.193015759,-0.848022458,-9.76800843,-0.0369433726,0.0428209777,-0.193366271,0.0240683891,0.0234983303,-0.0212241206,-3.12940216,19.4962387,-46.3197021,2
1.78211742,0.0433264852,0.0102113987,0.00395123634,0.999001011,0.0201370989,0.0867558886,0.00703625087,0.196721481,-0.849717791,-9.76778689,0.037162477,0.0243151608,-0.182514622,0.0122356983,0.0500332676,-0.00885799807,-3.04940796,19.5212631,-46.4013062,2
1.79207542,0.0433781179,0.0105271003,0.00393539336,0.998995549,0.0207714302,0.0868611346,0.00697594538,0.202915605,-0.850746038,-9.76757062,-0.00868561169,-0.00727758979,-0.148314246,0.0122963283,0.0774593651,-0.0016704516,-3.06489563,19.5732956,-46.4677734,2
1.80203242,0.0434748754,0.0109634655,0.00397034054,0.998986498,0.0216431381,0.0870586152,0.00700595269,0.211426353,-0.852675325,-9.76722224,-0.0118094063,0.0601929682,-0.13340017,0.0274885967,0.0988703817,0.00737790484,-2.8902359,19.6318893,-46.2308655,2
1.81199042,0.0436641638,0.0114652762,0.00404862779,0.998972229,0.0226418597,0.0874428035,0.0071149338,0.221173548,-0.856428613,-9.76667806,0.0284223586,0.0799574069,-0.122571902,0.0478557348,0.0995707288,0.0127602406,-2.87128448,19.5985184,-46.125824,2
1.82194842,0.0439217963,0.011907684,0.00413520929,0.99895546,0.0235203374,0.0879637123,0.00724383611,0.229742749,-0.861517315,-9.76603274,0.0114734523,0.0914805983,-0.0341828401,0.0536502413,0.0729649514,0.0132393427,-2.97147369,19.575798,-46.342804,2
1.83190542,0.0441618908,0.0121498904,0.00419823547,0.998941771,0.0239993688,0.0884476066,0.00734323127,0.234410923,-0.86624427,-9.76550317,0.0216193823,0.0918680633,0.0752718063,0.0362864174,0.0247520525,0.00737945363,-2.91458893,19.5606766,-46.3391113,2
1.84186342,0.0442508672,0.0121423042,0.00420239059,0.998937792,0.0239833114,0.0886257538,0.00735015158,0.234250417,-0.867984465,-9.76535294,0.0419809832,0.0496148025,0.158618783,-0.00295126648,-0.0282259434,-0.00381034962,-2.93053436,19.56884,-46.3197021,2
1.85182142,0.0441489213,0.0119086425,0.00417023455,0.998945302,0.0235179731,0.0884192032,0.00730878106,0.229710399,-0.865966768,-9.76563994,0.0779448797,0.00120944885,0.215169522,-0.0353237018,-0.0619781725,-0.00360641466,-2.86427307,19.5677719,-46.2875671,2
1.86177842,0.0439438319,0.0115869724,0.00415239551,0.998958231,0.0228753741,0.08800589,0.00730612702,0.223443137,-0.86192933,-9.76614205,0.0943875353,-0.0535551376,0.149682027,-0.0450650118,-0.0655507967,0.00123388064,-2.87298584,19.5172195,-46.4330139,2
1.87173642,0.0437546181,0.0113046975,0.00415512101,0.998969764,0.022309929,0.087625116,0.00734064402,0.217928191,-0.858209578,-9.76659447,0.0463322007,-0.0794212542,0.00648176323,-0.0278675351,-0.045888029,0.00293889944,-2.81808472,19.7103958,-46.2047424,2
1.88169442,0.0436905795,0.0111383453,0.00417829063,0.998974326,0.0219745602,0.0874962093,0.00740311549,0.214655197,-0.856950299,-9.76677742,-0.0243157818,-0.0740964059,-0.0799748695,0.0026877108,-0.0172619764,0.0082521718,-2.81732941,19.6318588,-46.4186401,2
1.89165142,0.043802357,0.0111390364,0.00422206456,0.998969243,0.0219714783,0.0877209325,0.00748845612,0.214620857,-0.859145617,-9.7665857,-0.0455299809,-0.0325464711,-0.147504099,0.0407048464,0.0186021905,0.0089913588,-2.78643799,19.639473,-46.1807861,2
1.90160942,0.0440956297,0.0113129303,0.00428514118,0.998954112,0.0223130796,0.0883107174,0.00759327985,0.217945782,-0.864907103,-9.76600352,-0.0584317307,-0.0202010034,-0.211981539,0.0742835775,0.0498695634,0.0141765326,-2.85460663,19.4987717,-46.3642273,2
1.91156742,0.0444940468,0.0116303582,0.00439473742,0.998932318,0.0229378217,0.0891132044,0.00777606018,0.224030983,-0.872745834,-9.76516824,-0.0604766805,-0.0322640009,-0.150717216,0.0849227831,0.0792581216,0.0270351432,-2.79136658,19.630394,-46.305542,2
1.92152442,0.0449062109,0.0120951519,0.00458946286,0.998907449,0.0238503501,0.0899465523,0.00811549772,0.232924447,-0.880885448,-9.76422891,-0.00577418122,-0.0607856004,-0.0861146874,0.0805594549,0.109632276,0.04399921,-2.88554382,19.3444138,-46.5393982,2
1.93148242,0.045304957,0.0126742159,0.00484394367,0.998881044,0.0249865798,0.0907558475,0.00856398664,0.244000808,-0.888789572,-9.76324224,0.0439022884,-0.0687429891,-0.0405640656,0.079191871,0.123234369,0.0473371372,-2.8306427,19.3965683,-46.5291443,2
1.94144042,0.0457004455,0.0132417851,0.00508987037,0.998854498,0.0261002887,0.0915588588,0.00899556837,0.254855362,-0.896631737,-9.76224796,0.0117992137,-0.00194375448,-0.0210585701,0.0799463466,0.104716875,0.0412116013,-2.89615631,19.2225418,-46.6196899,2
1.95139742,0.0461128484,0.0136626784,0.00528140446,0.998828877,0.0269243518,0.0923934025,0.00933031934,0.262879751,-0.904781214,-9.76128292,0.0341512577,0.133397759,-0.0721516285,0.0851572454,0.0656993091,0.0274304468,-2.7408905,19.4281082,-46.5129395,2
1.96135542,0.0465462019,0.0139034848,0.00537965555,0.998804887,0.0273954073,0.0932658936,0.00949354568,0.267456101,-0.913300547,-9.76036522,0.00757819844,0.163015995,-0.0823468593,0.0876520947,0.032990627,0.00971696433,-2.74491119,19.2140579,-46.8205872,2
1.97131242,0.0469519076,0.0140144016,0.00539470569,0.99878428,0.0276137523,0.0940795828,0.00950245301,0.269566608,-0.92124515,-9.75956092,0.022675997,0.163777992,-0.101706809,0.0735244751,0.0099460911,-0.00251155999,-2.64169312,19.3461533,-46.9519348,2
1.98127042,0.0472062164,0.0139558078,0.00538106289,0.998773181,0.0274956911,0.0945877807,0.00947381071,0.268401474,-0.926206718,-9.75912311,0.0771121187,0.155721161,-0.0294201558,0.0228338726,-0.0343806297,0.00284086098,-2.7558136,19.2829971,-46.8122864,2
1.99122842,0.0471414972,0.0137534165,0.00543472094,0.998778744,0.0270848745,0.0944577428,0.0096024069,0.264395508,-0.924937136,-9.75935283,0.164466248,0.195152935,0.17386779,-0.0498776957,-0.0402249731,0.0233980548,-2.69303131,19.3617783,-46.7480469,2
2.00118542,0.0467482735,0.0135803892,0.00558374593,0.998798743,0.0267264292,0.0936728225,0.00992804517,0.260916616,-0.917273762,-9.76016999,0.228099438,0.235523232,0.157924955,-0.104818173,-0.0227378588,0.0344158188,-2.65299988,19.3420486,-46.857666,2
2.01114342,0.0462151046,0.0135028968,0.00575199902,0.998823714,0.0265592884,0.0926091416,0.0102866511,0.259311062,-0.906887831,-9.76118296,0.07423154,0.215560494,-0.0712041185,-0.104652867,-0.00319941645,0.0319546014,-2.71405029,19.4100342,-46.7050476,2
2.02110142,0.0458090411,0.0135055505,0.00591432326,0.998841391,0.0265528602,0.0918005699,0.0106225164,0.259267698,-0.898992109,-9.76191479,-0.0776072636,0.165616606,-0.209336578,-0.0567884035,0.00642125262,0.0304150283,-2.70922089,19.4877014,-46.707428,2
2.03105842,0.0456903473,0.0134944009,0.00607265299,0.998845991,0.0265169158,0.0915670382,0.0109442291,0.258922355,-0.896711597,-9.7621334,-0.164949575,0.0508086154,-0.246526783,0.00943663996,-0.0113015678,0.0313933603,-2.63382721,19.4127502,-46.7630005,2
2.04101642,0.0458891156,0.013342842,0.00619241687,0.998838289,0.0262000583,0.0919664449,0.011193399,0.25581975,-0.900611965,-9.76185633,-0.165887166,-0.0272924961,-0.246205881,0.0674075335,-0.0509903915,0.0200259238,-2.60787201,19.5110626,-46.727417,2
2.05097442,0.0462856044,0.0129571777,0.00622412036,0.998824768,0.0254197261,0.0927566629,0.011282891,0.248184012,-0.908328312,-9.76133845,-0.163189506,-0.0328937501,-0.0614718291,0.0866172388,-0.102180593,0.0028262476,-2.63196564,19.3795319,-47,2
2.06093142,0.0466808453,0.0123562447,0.0061476672,0.998814569,0.0242174639,0.0935392864,0.0111762491,0.236430848,-0.915969986,-9.76091642,-0.169841731,0.0465738274,0.148795308,0.0660725459,-0.138328224,-0.0206401944,-2.71943665,19.4568024,-46.8690491,2
2.07088942,0.0469011072,0.0116206238,0.00594808081,0.998814295,0.0227581049,0.0939674594,0.0108400504,0.222176989,-0.920150486,-9.76085797,-0.128952379,0.0429731725,0.246899124,0.0188351832,-0.160813123,-0.0451382697,-2.92938995,19.0762024,-46.843689,2
2.08084742,0.046843638,0.010789494,0.00565203847,0.998827967,0.0211186464,0.0938370884,0.0103255997,0.206176707,-0.918877617,-9.76132851,-0.0560898255,-0.0232423439,0.342240489,-0.0444958545,-0.176174238,-0.0576247685,-2.93839264,19.3112183,-46.8291626,2
2.09080442,0.046458987,0.00989110797,0.00533345054,0.998856986,0.01934894,0.093051499,0.00977810381,0.188915612,-0.911207228,-9.76239702,0.0720527347,-0.0328580212,0.42890112,-0.111144535,-0.188319728,-0.053749036,-3.20739746,19.2557373,-46.7174683,2
2.10076242,0.0457613753,0.00895667112,0.00503201,0.998899605,0.0175074397,0.0916403911,0.00927224546,0.170960177,-0.897427928,-9.76400445,0.155848715,-0.00339205359,0.406267263,-0.167779326,-0.18920283,-0.0522163846,-3.19210815,19.4672546,-46.6055908,2
2.11072042,0.0448615622,0.00806665039,0.00475293154,0.998949307,0.015754066,0.0898262825,0.00880773353,0.153865378,-0.879710778,-9.76590064,0.124161656,-0.0179668146,0.276931858,-0.192167416,-0.169048086,-0.0457674265,-3.24408722,19.4262695,-46.4777527,2
2.12067742,0.043922971,0.00734872037,0.00453463732,0.998997641,0.0143402601,0.0879378308,0.00844736976,0.140081712,-0.861264509,-9.76775241,0.124328317,-0.0893847951,0.0993675522,-0.181420758,-0.11605864,-0.0297162868,-3.24408722,19.4262695,-46.4777527,2
2.13063542,0.0431351335,0.00699206877,0.00442610705,0.999034952,0.0136400501,0.0863561993,0.00827137993,0.133260616,-0.845812819,-9.76919793,0.0715936293,-0.112617641,-0.174071203,-0.131187007,-0.0231358409,-0.0110567817,-3.34113312,19.5356445,-46.4508667,2
2.14059342,0.042670325,0.00709063702,0.00442178249,0.999054338,0.0138414204,0.0854265179,0.0082602982,0.135238665,-0.836729422,-9.76995313,0.011855483,-0.106737277,-0.425156088,-0.0539510734,0.0584740676,0.00592007115,-3.47306061,19.4858856,-46.3620605,2
2.15055042,0.0426256218,0.00751557081,0.0044878801,0.999052788,0.014688289,0.0853415057,0.0083570579,0.143513522,-0.835898743,-9.76990578,-0.0170693726,-0.0501071161,-0.570501548,0.0352916606,0.111169927,0.0128349876,-3.3833313,19.8011475,-46.1091003,2
2.16050842,0.0429691155,0.00811874655,0.00457077914,0.999032896,0.0158884186,0.0860354389,0.00846642281,0.155229323,-0.842678905,-9.76914415,-0.0169638116,-0.00157791684,-0.621391192,0.102548458,0.128441855,0.0113622602,-3.25421143,19.746994,-46.1803589,2
2.17046642,0.0435742013,0.00874328425,0.00462628061,0.999001261,0.0171319379,0.0872529303,0.00851384726,0.167359613,-0.854573633,-9.76791081,-0.0756313786,0.0347075946,-0.574890723,0.138242677,0.120167457,0.000815943349,-3.1437912,19.6912384,-46.3884277,2
2.18042342,0.0442448134,0.00925151525,0.00462918146,0.998967149,0.0181464546,0.0885997554,0.00846343482,0.177248189,-0.86773049,-9.76657635,-0.100633371,0.0571419832,-0.424642293,0.128776208,0.0795044526,-0.00496604573,-3.16784668,19.6062469,-46.2632751,2
2.19038142,0.0447820965,0.00953992651,0.00462241803,0.998940471,0.0187219548,0.0896776431,0.0084145164,0.182851215,-0.878258971,-9.76553181,-0.0664327759,0.0687179277,-0.19614275,0.0861205533,0.0362468883,-0.0019371839,-3.24988556,19.5020447,-46.4338989,2
2.20033942,0.0450866199,0.00961568365,0.00462457799,0.998926126,0.0188716856,0.090287962,0.00840648602,0.184303259,-0.884219926,-9.76496658,-0.0174569837,0.0454996223,-0.0347995107,0.0359692425,-0.00528031401,0.000418648589,-3.13101196,19.5133057,-46.543457,2
2.21029642,0.0451629873,0.0094818722,0.00461302627,0.99892399,0.0186037629,0.0904395015,0.00839406946,0.18168451,-0.885700008,-9.76488123,-0.0030168088,-0.00344824076,0.0990408045,-0.00226296647,-0.0448197871,-0.000902110245,-3.21525574,19.4195862,-46.509613,2
2.22025442,0.0451005826,0.00922868227,0.00458656711,0.998929298,0.0180986308,0.0903119604,0.00836506238,0.176753958,-0.884454319,-9.76508465,0.0165781916,-0.00693849403,0.141442022,-0.0185218304,-0.0530955605,-0.00585558964,-3.24684143,19.3948669,-46.3760986,2
2.23021242,0.0450116491,0.00897319872,0.00453872805,0.998935858,0.0175910149,0.090130936,0.00829375887,0.171799843,-0.882686286,-9.76533307,-0.0176727271,0.0203231685,0.108171621,-0.0146448081,-0.052199401,-0.00908251293,-3.31465912,19.3852997,-46.4415894,2
2.24016942,0.0449806848,0.0087029827,0.00447951617,0.998939887,0.0170544778,0.0900656875,0.00819992977,0.166561339,-0.882049011,-9.76548154,-0.0309892865,0.0148974902,0.129568045,0.00254136999,-0.0562245026,-0.00998026505,-3.2676239,19.4067383,-46.4271851,2
2.25012742,0.0450392732,0.00846303205,0.00441069376,0.998939674,0.0165789321,0.0901798696,0.00808262734,0.161915724,-0.883164206,-9.76545874,-0.0232012812,0.0396554263,0.081512162,0.019268591,-0.0413830057,-0.0134428628,-3.34416962,19.4690399,-46.2991333,2
2.26008542,0.0451686671,0.00829561133,0.00433102142,0.998935576,0.0162494262,0.090436259,0.00793593306,0.158694241,-0.885668298,-9.76528514,-0.0270128206,0.0556269755,0.00786649559,0.0320397802,-0.028828064,-0.0141986683,-3.35726166,19.3879089,-46.3885498,2
2.27004242,0.045334597,0.00819432325,0.00427382213,0.99892912,0.0160503493,0.0907667208,0.0078278207,0.1567455,-0.888895736,-9.76502327,0.0316485907,0.0394015246,-0.00137362644,0.0317868553,-0.0114379469,-0.00494353427,-3.26853943,19.4344482,-46.6799622,2
2.28000042,0.0454674666,0.00820587865,0.0042850252,0.998922912,0.0160716579,0.0910329929,0.0078471913,0.156949772,-0.8914962,-9.76478304,0.087259163,0.00698671708,0.0220282919,0.0232767239,0.0177955721,0.00849131402,-3.12509918,19.500824,-46.532959,2
2.28995742,0.0455733907,0.00839616167,0.0043613622,0.998916289,0.0164457569,0.0912478133,0.00798127641,0.160599599,-0.893594122,-9.76453169,0.0861531745,-0.024434111,-0.00455868622,0.0187064912,0.0620033368,0.0188998524,-3.17544556,19.4463043,-46.4689026,2
2.29991542,0.0456496465,0.00877491923,0.00449142664,0.99890888,0.0171932438,0.0914057277,0.00820625752,0.167895985,-0.89513631,-9.76426807,0.0546154969,0.0181086343,-0.0408855526,0.0129066594,0.090522863,0.0260195471,-3.10277557,19.3823853,-46.5671692,2
2.30987342,0.0456969296,0.00924388438,0.00464478043,0.998901838,0.0181197594,0.0915070184,0.00847006345,0.176941005,-0.896125468,-9.76401731,0.0108545532,0.0387004637,-0.0516103602,0.00932454132,0.0979070365,0.0263505057,-3.06365204,19.5426331,-46.466095,2
2.31983042,0.0457629827,0.00969401914,0.00478524426,0.998893869,0.0190095327,0.0916457362,0.00870930637,0.185626343,-0.897480097,-9.76373148,-0.0178822234,0.059358271,-0.0943932709,0.0162660703,0.0852684677,0.0207767747,-3.10282135,19.3815155,-46.5617981,2
2.32978842,0.0458749245,0.0100293323,0.00487129281,0.998885009,0.0196735958,0.0918744567,0.00884896843,0.192105987,-0.899713628,-9.76340064,-0.0518951685,0.0448324636,-0.0918809958,0.0278314669,0.0491571128,0.00828680303,-2.97984314,19.4739532,-46.6054688,2
2.33974642,0.0460438973,0.0101789784,0.00490730443,0.998875532,0.0199693288,0.0922147844,0.00890416187,0.194987205,-0.903037001,-9.76303707,-0.0324804018,0.0478564876,-0.0460071334,0.0384649336,0.0106400782,0.00354717486,-2.99781799,19.4868622,-46.5793457,2
2.34970342,0.0462444546,0.0101524304,0.0049186924,0.998866433,0.0199135759,0.0926162904,0.00892561788,0.194435654,-0.906957608,-9.7626846,0.05306529,0.0362147843,0.0308534034,0.0398863405,-0.02094917,0.00372366514,-3.06606293,19.4591217,-46.5296631,2
2.35966142,0.0463969921,0.0100005083,0.00495133659,0.998860743,0.0196046016,0.0929209601,0.00900236216,0.191413803,-0.909932605,-9.76246716,0.12716502,-0.0369757588,0.121616209,0.0186417699,-0.0374682285,0.0129155647,-3.09375763,19.40448,-46.5200195,2
2.36961942,0.0463949243,0.00978131453,0.00501218396,0.998862711,0.0191591125,0.0929160101,0.00914493502,0.187064796,-0.909884236,-9.76255601,0.141390109,-0.0935870691,0.230790869,-0.0198763348,-0.0491168872,0.0154775558,-2.97621155,19.5622406,-46.4204712,2
2.37957642,0.0462269827,0.00953674078,0.00507110185,0.998872578,0.0186641394,0.0925786433,0.00928897121,0.182238289,-0.906590017,-9.76295407,0.0863615748,-0.0627639878,0.225801391,-0.0470131487,-0.0464191064,0.010808235,-3.01568604,19.5339813,-46.5450134,2
2.38953442,0.0459716579,0.00932722843,0.00510635173,0.998886211,0.0182424509,0.0920661731,0.00938363007,0.178129794,-0.901585779,-9.763493,0.0409400228,-0.00911021204,0.089721772,-0.0536929816,-0.0352655537,0.00615946483,-2.93695068,19.6194763,-46.5930786,2
2.39949242,0.0457362372,0.00921244161,0.00512347643,0.998897996,0.0180123962,0.0915940882,0.009432655,0.175891313,-0.896975728,-9.76395827,0.00681660295,0.001692337,-0.103893505,-0.0403606631,-0.0109010916,0.00112209539,-2.98960114,19.580307,-46.5353088,2
2.40944942,0.0456149377,0.00921411452,0.00513770942,0.998903421,0.0180153967,0.0913515167,0.00946314717,0.175924521,-0.89460688,-9.76417513,-0.0211988554,-0.0297062062,-0.321698636,-0.00527077354,0.0108558051,0.00283299712,-2.93015289,19.6157837,-46.4249268,2
2.41940742,0.0456849545,0.00931415619,0.00516615214,0.998899092,0.0182129533,0.0914931506,0.00950981406,0.177851178,-0.895990005,-9.76401322,-0.00995743999,-0.10254326,-0.399970793,0.0334571786,0.0284078997,0.00711988797,-2.90545654,19.6343384,-46.3960876,2
2.42936542,0.0459379919,0.0094577043,0.00521961903,0.998885894,0.0184940421,0.0920020907,0.00959941649,0.180587271,-0.900960048,-9.76350585,-0.0113467755,-0.129146824,-0.320272987,0.0657510459,0.0270029455,0.0110137872,-3.04577637,19.4767151,-46.5125732,2
2.43932242,0.0463104719,0.00954713576,0.00528073881,0.998867542,0.018664845,0.0927498096,0.00970712724,0.18224229,-0.908261384,-9.76279858,-0.00716592784,-0.0771038441,-0.183014388,0.0794849694,0.00978560932,0.0111781042,-2.918396,19.6620636,-46.4526367,2
2.44928042,0.0466927847,0.00956531815,0.00531497758,0.998849372,0.018695053,0.0935160401,0.00976729357,0.182524139,-0.915742972,-9.76209423,-0.015079313,-0.0311653189,-0.0631102439,0.0689532608,-0.00287806895,0.00401124731,-2.9853363,19.5412598,-46.6080627,2
2.45923792,0.0469500722,0.00950560051,0.00532937118,0.998837741,0.0185717827,0.0940308315,0.00979721352,0.181311986,-0.920769203,-9.76164415,-0.031823655,-0.00369352076,0.0814385123,0.0323704854,-0.0201049913,0.00640489627,-2.9890213,19.5814819,-46.5296936,2
2.46919492,0.0470134536,0.00942916927,0.00536786431,0.998835291,0.0184142535,0.0941576892,0.00988055558,0.179772082,-0.922007732,-9.76155589,-0.0142725084,0.0178957222,0.15721593,-0.0038303365,-0.00721624633,0.0119743459,-3.04747772,19.3911285,-46.6126404,2
2.47915292,0.0469603911,0.0094230037,0.00541631389,0.998837689,0.018397743,0.0940522934,0.00997929096,0.17961269,-0.920978681,-9.76165584,-0.0419457292,-0.0329626507,0.0341641354,-0.0142110717,0.00278978236,0.00669143395,-3.04747772,19.3911285,-46.6126404,2
2.48911092,0.0469195857,0.00942584516,0.00543785185,0.998839383,0.0184017502,0.0939710145,0.0100229563,0.179653186,-0.920185192,-9.76172949,-0.109173491,-0.0590449672,-0.106420978,-0.000881810673,-0.0027218475,0.00249302783,-2.94676971,19.6121368,-46.5056152,2
2.49906792,0.0469765798,0.00941708244,0.00543379773,0.998836884,0.0183840748,0.0940849672,0.0100146492,0.179478725,-0.921297684,-9.76162779,-0.123813153,-0.0538921876,-0.166228089,0.0232142061,-0.00140784378,-0.00376167195,-3.03388214,19.4911804,-46.7332153,2
2.50902592,0.0471422891,0.00936815827,0.00539024257,0.998829728,0.0182886426,0.0944154446,0.00992898057,0.178541572,-0.924524244,-9.7613402,-0.10716407,-0.0780493082,-0.145117496,0.0384798013,-0.0213591419,-0.0120497094,-2.97149658,19.5981903,-46.5121765,2
2.51898392,0.0473318722,0.00919109736,0.00530129766,0.998822925,0.017940215,0.0947916615,0.00976404037,0.175134193,-0.928197161,-9.7610532,-0.077420454,-0.0616572686,0.0212917944,0.0330759808,-0.051517576,-0.0184484869,-3.13298035,19.3561096,-46.5484924,2
2.52894092,0.0474435193,0.00886972397,0.00518971949,0.998821158,0.0173050053,0.0950101216,0.00956888308,0.168930315,-0.930329862,-9.76095968,-0.0379970464,-0.00131539345,0.188193837,0.0080928551,-0.0778651312,-0.0175698083,-3.04794312,19.42099,-46.6358032,2
2.53889892,0.0474004878,0.00848927303,0.00509816496,0.998826834,0.0165505694,0.0949187833,0.00942212819,0.161567659,-0.929438174,-9.76116894,0.0242826285,0.030413843,0.31050738,-0.0264065322,-0.0748554915,-0.0116943428,-2.99940491,19.3487701,-46.7177429,2
2.54885692,0.0471962474,0.00817430699,0.00504596217,0.998839463,0.0159250736,0.0945060589,0.00935048005,0.155468155,-0.925408845,-9.76165117,0.0861969223,0.0640932636,0.305004107,-0.0547407269,-0.0507404953,-0.00347849587,-2.99112701,19.5473175,-46.6643982,2
2.55881392,0.0468962344,0.0080029387,0.00503938032,0.99885506,0.0155841832,0.0939036864,0.00935797017,0.152149148,-0.919527824,-9.76225907,0.0830815394,0.0990633086,0.148492525,-0.0616020933,-0.0159865096,0.00415918417,-3.15005493,19.4139709,-46.5696106,2
2.56877192,0.0466420674,0.00801206814,0.00507344921,0.998866676,0.015601327,0.0933954288,0.00942923329,0.152323783,-0.91456538,-9.7627226,0.0338257794,0.0602826923,-0.078493691,-0.0387545787,0.0225009657,0.00879684184,-3.17524719,19.4163666,-46.5464478,2
2.57872992,0.0465605575,0.00818624043,0.0051254272,0.998868782,0.0159466069,0.0932347091,0.00951843024,0.155696995,-0.912996084,-9.76281612,-0.026559396,0.0325268896,-0.300761062,0.00796152838,0.0454832464,0.00807645638,-3.07576752,19.3872375,-46.6877136,2
2.58868692,0.0467247678,0.00841433394,0.00515448089,0.998859032,0.0164002517,0.0935661186,0.00955281376,0.160120858,-0.916231925,-9.76244144,-0.0463959318,0.0369598305,-0.398699458,0.0581351221,0.0457199737,-0.000480502844,-3.181633,19.4810181,-46.5571899,2
2.59864492,0.0470988985,0.00863263955,0.00515305134,0.998839612,0.0168354568,0.0943172346,0.00952343892,0.164357874,-0.923565409,-9.76167981,-0.0941774545,0.0407019397,-0.347536842,0.0871377513,0.0387299731,-0.00313993543,-3.08455658,19.4039154,-46.7436218,2
2.60860292,0.0475155737,0.00877748478,0.00512418933,0.998818813,0.0171255784,0.0951523725,0.00944500391,0.167176676,-0.93171854,-9.76085739,-0.10238321,0.0186282742,-0.142907419,0.077363804,0.0163905304,-0.00743142096,-3.14138794,19.4062347,-46.5520325,2
2.61855992,0.0478102814,0.00878410737,0.0050911553,0.998804871,0.0171397305,0.0957419294,0.00937326404,0.167305362,-0.937473815,-9.76030384,-0.055824964,0.0121132663,0.125139122,0.0375189222,-0.0150715224,-0.0055554905,-3.0812912,19.362915,-46.6333923,2
2.62851792,0.0478698675,0.00866900322,0.00508504243,0.998803048,0.0169088446,0.0958600482,0.00937110349,0.165049966,-0.938626858,-9.76023195,0.0448919752,0.069081135,0.313011472,-0.0135408938,-0.0270147659,0.00289689377,-3.1526413,19.3670349,-46.5591125,2
2.63847592,0.0476854178,0.00857382831,0.00509927135,0.998812534,0.0167179098,0.0954900792,0.00941175468,0.163192191,-0.935015316,-9.76060955,0.0714399548,0.110959425,0.373094477,-0.059504386,-0.0101287272,0.00162177207,-3.16650391,19.3341675,-46.6593323,2
2.64843292,0.0473280776,0.00854440171,0.00510111608,0.998829805,0.0166614939,0.0947743774,0.00942394433,0.162652641,-0.92802838,-9.76128526,0.0103287575,0.0834722101,0.312269714,-0.0791298226,-0.00259554945,-0.00168848829,-3.12467194,19.3128204,-46.5785828,2
2.65839092,0.046954012,0.00855184769,0.00509297456,0.998847518,0.016680161,0.094025387,0.00941283901,0.16284641,-0.920716011,-9.76197441,-0.0156026245,0.0258815333,0.133992291,-0.0677274987,0.00696519902,-0.00158249447,-3.09024048,19.4425354,-46.6470032,2
2.66834892,0.0467034756,0.00859805592,0.00508287236,0.99885888,0.0167758102,0.0935240472,0.00939220939,0.163787856,-0.915821152,-9.76241923,-0.0247741566,-0.0245030846,-0.071763506,-0.0311569069,0.00817011856,-0.00488459645,-2.9726944,19.5116272,-46.667572,2
2.67830592,0.0466539306,0.00861912093,0.00506778818,0.998861094,0.0168198845,0.0934247978,0.00936075882,0.164219653,-0.914852088,-9.76250282,-0.0382244619,-0.0410344596,-0.163856683,0.0101351403,-0.000224697636,-0.00384143647,-2.96243286,19.5147858,-46.7406311,2
2.68826392,0.0467557017,0.00860547286,0.00503097148,0.998856682,0.0167951619,0.0936278108,0.00928653594,0.163975177,-0.916834274,-9.76232103,-0.0149357399,-0.00897518749,-0.166433256,0.0302198511,-0.00655344222,-0.0115969097,-2.9719696,19.5619202,-46.5102234,2
2.69822192,0.0469057631,0.00857392863,0.00494544229,0.998850275,0.0167387627,0.0939265178,0.00911548485,0.163420009,-0.919750746,-9.76205624,-0.0172236864,-0.0285043561,-0.1032517,0.0283575039,-0.0062114927,-0.0210505985,-3.11358643,19.403717,-46.6591187,2
2.70817892,0.0469985585,0.00857241351,0.00483669779,0.998846456,0.0167452931,0.0941104692,0.00889593717,0.163480909,-0.92154669,-9.76188556,0.00635815512,0.00172273214,-0.0119938047,0.00556493225,0.00352532277,-0.0209816657,-3.23738098,19.4109955,-46.4575195,2
2.71813692,0.0469556136,0.00862420065,0.00475486674,0.998848498,0.0168572571,0.0940235757,0.00872753322,0.164575243,-0.920698329,-9.76194752,0.0619764541,0.0402290615,0.0417880544,-0.0204501562,0.0148336375,-0.0134814056,-3.13301086,19.3401184,-46.6182556,2
2.72809492,0.0468122095,0.00870012329,0.0046983372,0.998854801,0.0170159586,0.0937361607,0.00860927009,0.166128976,-0.917892186,-9.76218542,0.0740397621,0.02230952,0.0168868374,-0.0328320377,0.0134674199,-0.00946893264,-3.12952423,19.4487915,-46.5952148,2
2.73805192,0.0466579421,0.0087480203,0.00465650036,0.99886184,0.0171170839,0.0934270014,0.00852334595,0.167121019,-0.914873642,-9.76245138,0.0444669182,0.0357511123,-0.0793628751,-0.0270913281,0.00811792817,-0.00737462286,-3.10889435,19.4038696,-46.4890747,2
2.74800992,0.0465700098,0.00880166236,0.00463329096,0.998865527,0.0172275066,0.0932510053,0.00847319689,0.1682018,-0.913155221,-9.762594,-0.00644318479,0.0495950018,-0.167507022,-0.0101221614,0.0121762324,-0.00581299886,-3.19135284,19.5090179,-46.4074402,2
2.75796792,0.0465600022,0.00885798737,0.00462495724,0.998865494,0.0173413769,0.0932312984,0.00845136812,0.16931378,-0.912962767,-9.76259283,-0.0789322833,0.0329424116,-0.187709268,0.00460698362,0.0114712939,-0.000750062987,-3.26998138,19.3213501,-46.5617981,2
2.76792492,0.0466030383,0.00888596824,0.00461847377,0.998863279,0.0173978355,0.0933175851,0.00843502122,0.169863577,-0.913805282,-9.76250457,-0.0576350091,0.00894508461,-0.165950441,0.0129098361,5.22620976E-05,-0.00227691117,-3.24960327,19.4460144,-46.5655212,2
2.77788292,0.0466818063,0.00884941524,0.00460720673,0.998859978,0.0173250047,0.0934747819,0.00841452867,0.169150077,-0.915340163,-9.76237305,-0.0253479744,-0.00702763361,-0.143785955,0.0163117591,-0.0149650369,-0.000181802316,-3.14970398,19.454483,-46.5482178,2
2.78783992,0.0467533125,0.00876269594,0.00461722664,0.998857377,0.017149559,0.093617388,0.00844159645,0.167435071,-0.916732495,-9.76227193,0.0321818756,-0.00847841694,-0.0650280602,0.00902425218,-0.0159838814,0.00618903572,-3.20245361,19.3621979,-46.6096802,2
2.79779792,0.0467494783,0.00871897152,0.00465738999,0.998857749,0.017058071,0.0936100277,0.00852635856,0.16654205,-0.916660671,-9.76229414,0.0576154641,-0.0167803813,-0.0263993466,-0.0128051462,-0.00175594306,0.0128000658,-3.12155914,19.3934326,-46.6246338,2
2.80775592,0.0466419225,0.00873986384,0.00475784918,0.998862124,0.0170913249,0.0933965881,0.00872773089,0.166870021,-0.914576632,-9.76248353,0.0930508799,-0.0333791956,0.0188315417,-0.0288297795,0.00950954296,0.0253169928,-3.19740295,19.406662,-46.3707886,2
2.81771292,0.0464931016,0.00879035672,0.00491352122,0.998867831,0.0171791609,0.093101752,0.00903779843,0.167732155,-0.911697861,-9.76273838,0.123014075,-0.0208452927,0.0053191492,-0.0288185924,0.0135602113,0.0339392424,-3.16368866,19.3645477,-46.3503113,2
2.82767092,0.0463945574,0.00885947266,0.00508894343,0.998870982,0.0173022233,0.0929081298,0.00938494633,0.168936635,-0.909807298,-9.76289386,0.0990647151,0.00808949069,-0.0398655619,-0.00956628565,0.0190340802,0.0340682194,-3.16377258,19.364502,-46.350647,2
2.83762892,0.0464042363,0.00896450891,0.00525229219,0.998868742,0.0174976699,0.0929313558,0.0097027376,0.170844387,-0.910034093,-9.7628395,0.0527145952,0.0141521517,-0.118030752,0.0133006806,0.0266957283,0.0292598847,-3.11962891,19.4003448,-46.4645691,2
2.84758592,0.0465016795,0.00911304394,0.00540347554,0.998862047,0.0177807923,0.0931305763,0.00999056937,0.17360523,-0.911979309,-9.7626092,0.0704540491,0.00337824426,-0.12005612,0.025305286,0.0371955521,0.0285294466,-3.08233643,19.4035797,-46.5476074,2
2.85754392,0.0466420115,0.00929277625,0.00554681743,0.99885308,0.01812683,0.0934159314,0.010258953,0.176978725,-0.914765505,-9.76228771,0.0604965177,-0.0617711043,-0.0313432328,0.0299287997,0.0360977985,0.0258886553,-3.05831909,19.3882904,-46.6076965,2
2.86750192,0.0467917297,0.00947383499,0.00566521451,0.998843672,0.0184777258,0.0937197247,0.0104769016,0.180399109,-0.917731662,-9.76194693,0.0413641847,-0.0987581151,0.0126081372,0.0317471772,0.0403980799,0.0198858865,-2.99245453,19.5021973,-46.486145,2
2.87745892,0.0469306561,0.00967433463,0.00575151507,0.998834791,0.0188707065,0.0940016049,0.0106287048,0.184230468,-0.92048381,-9.7616161,0.0230179971,-0.0784984402,0.0100333182,0.0225347709,0.0394981988,0.0107334005,-2.96348572,19.5135345,-46.5310364,2
2.88741692,0.0470044826,0.00982143294,0.00579667864,0.998829635,0.0191609682,0.0941518447,0.0107040981,0.187061234,-0.921950668,-9.76142379,-0.0404159989,-0.0448594978,0.0512906268,0.00800036453,0.0176180452,0.00435058307,-2.87950134,19.6204834,-46.421875,2
2.89737492,0.0470027379,0.0098574917,0.0058022371,0.998829347,0.0192328193,0.0941488466,0.0107118751,0.187762642,-0.921921368,-9.76141327,-0.0752348171,0.00838226309,0.0678898794,-0.00726594031,-0.00639674347,-0.00274168141,-2.95298767,19.5076599,-46.3679199,2
2.90733192,0.0469471035,0.00976587611,0.00577035101,0.998832944,0.0190524786,0.0940358602,0.0106575614,0.186004254,-0.920818303,-9.76155121,-0.096071689,0.0222428845,0.0307674787,-0.0125494832,-0.0315806828,-0.00694833742,-2.85894775,19.6006165,-46.5485229,2
2.91728992,0.0468746335,0.0095751067,0.00572991567,0.998838514,0.0186741212,0.0938879832,0.0105957252,0.182313419,-0.91937446,-9.76175697,-0.105548944,0.0718254653,-0.0275350727,-0.0158688463,-0.0422809981,-0.00488039292,-2.90389252,19.4609222,-46.6662903,2
2.92724792,0.046796421,0.00939284972,0.00570529385,0.998844051,0.0183114034,0.0937290079,0.0105648627,0.178775326,-0.917822336,-9.76196856,-0.0895909304,0.101996512,-0.0632365006,-0.0146464314,-0.0334179141,-0.00292129489,-3.01049042,19.5345917,-46.554718,2
2.93720492,0.0467488727,0.00924136117,0.00566759035,0.998847874,0.0180113846,0.0936315259,0.0105042782,0.17584815,-0.916870588,-9.76211119,-0.0989340562,0.102840343,-0.164997085,-0.00430990569,-0.0279009119,-0.0101927891,-3.09625244,19.5032654,-46.4504395,2
2.94716292,0.0467919155,0.00916451372,0.0055977816,0.998846982,0.0178633639,0.0937156469,0.0103706969,0.174401769,-0.917691914,-9.76205975,-0.0793815432,0.121468544,-0.304660408,0.0198041666,-0.00428880332,-0.015737839,-3.06360626,19.4967651,-46.4813843,2
2.95712092,0.0469305487,0.00918738291,0.0055305615,0.998840547,0.017914385,0.0939922279,0.0102312992,0.174895288,-0.920392259,-9.76179671,-0.0683529486,0.0750878281,-0.317642639,0.0321836025,0.00686824322,-0.0108189806,-3.09172058,19.4770508,-46.4060974,2
2.96707792,0.0471193828,0.00925003874,0.0054949606,0.998831383,0.0180418727,0.0943703046,0.0101507058,0.176133506,-0.924083515,-9.76142554,-0.00135641958,-0.010404855,-0.194562203,0.0419344679,0.0206861366,-0.00252134586,-3.04943085,19.5968933,-46.40271,2
2.97703592,0.0473329871,0.00939675934,0.00550936114,0.998819837,0.0183331307,0.0947997235,0.0101619677,0.178969314,-0.928275852,-9.76097604,0.076911372,-0.0115995446,-0.0850280612,0.0413293988,0.0330538526,0.00373681635,-3.03081512,19.4207153,-46.4352112,2
2.98699392,0.04750496,0.00954962996,0.00552953158,0.998810057,0.0186365388,0.0951459641,0.0101848348,0.181924858,-0.931655996,-9.76059961,0.0558496783,0.00330269481,0.0678238284,0.0262309834,0.0308512822,0.000358688878,-2.93572998,19.4254608,-46.6536865,2
2.99695092,0.0475942009,0.00968972966,0.00553025818,0.998804499,0.0189168822,0.0953260843,0.0101712968,0.184657991,-0.933414384,-9.76038042,0.0185502406,-0.00316891236,0.115938163,0.011719685,0.0218279622,-0.00315694977,-3.10177612,19.3091583,-46.5428162,2
3.00690892,0.0476034374,0.0097247709,0.00551113077,0.998803833,0.0189889604,0.0953445712,0.0101293906,0.185361171,-0.933594855,-9.76034944,0.00318259383,0.0139205349,0.053807578,-0.00540530123,-0.00396566512,-0.00607096171,-3.09651184,19.3829346,-46.4076538,2
3.01686692,0.047534007,0.00967233065,0.00545983259,0.998807929,0.0188892033,0.0952040583,0.0100327194,0.184389987,-0.932223128,-9.76049907,-0.0129049282,0.00835902835,0.0210369428,-0.0199906342,-0.0143099157,-0.0128385862,-3.02101898,19.4788818,-46.5358582,2
3.02682392,0.0474069118,0.0095873895,0.00538050584,0.998815221,0.0187273545,0.0949472537,0.00988392363,0.182814737,-0.929716114,-9.76076795,-0.0400600981,-0.0218309427,-0.00398293216,-0.0262478814,-0.0214236341,-0.0175560769,-3.05886078,19.4079132,-46.621582,2
3.03678192,0.0472803278,0.00947227068,0.00530250544,0.998822699,0.0185047798,0.0946912263,0.00974061144,0.180646636,-0.927216625,-9.76104619,0.00385691289,-0.0579989653,-0.0248041864,-0.0190893039,-0.0228353757,-0.0107551618,-2.94050598,19.4505463,-46.5687561,2
3.04673992,0.0472359978,0.00938794497,0.00526744876,0.998825796,0.0183392412,0.094601007,0.00967905831,0.179032333,-0.926335824,-9.76115958,0.0763994221,-0.075788816,-0.0544686723,0.00178810174,-0.0114034545,-0.00239817705,-2.88243103,19.5313873,-46.4222107,2
3.05669692,0.0473107055,0.00939844963,0.00527852327,0.998822136,0.0183586723,0.0947508908,0.00969897341,0.179219453,-0.927799101,-9.76101696,0.0669347706,-0.111136316,-0.0377016619,0.0259522945,0.0144177563,0.0076390109,-2.93202972,19.4905853,-46.5569458,2
3.06665492,0.0474682182,0.00952298399,0.00532743573,0.998813204,0.0186026667,0.0950683723,0.00978247716,0.181595589,-0.930898529,-9.76067794,0.0576753046,-0.103847109,-0.011256138,0.0339612626,0.0336553939,0.00872385781,-2.80259705,19.5156708,-46.4541321,2
3.07661292,0.0476287597,0.00970301749,0.00537840695,0.998803595,0.0189578043,0.095392535,0.00986466717,0.185056233,-0.934063057,-9.76031086,0.03117047,-0.0293054433,0.0114209732,0.029370239,0.0350812487,0.00872705318,-2.91001892,19.3884735,-46.5820312,2
3.08656992,0.0477507768,0.00985953306,0.00541876031,0.998796001,0.0192670602,0.0956391555,0.0099284061,0.18807021,-0.936470557,-9.7600221,0.00930217268,-0.0170218619,0.0246001882,0.02099034,0.0245537646,0.00415331032,-2.81645966,19.4303741,-46.4377136,2
3.09652792,0.0478235871,0.00995887168,0.00542169089,0.998791531,0.0194655571,0.0957859803,0.0099233906,0.190004868,-0.937903877,-9.75984733,-0.0289944229,-0.0410270069,0.0178407771,0.00747719314,0.0145120481,-0.00376586523,-2.78514862,19.4031677,-46.5234985,2
3.10648592,0.0478211526,0.0099685551,0.00539813864,0.998791567,0.0194872741,0.0957807318,0.00987523772,0.190216922,-0.937852586,-9.75984792,-0.0434220488,-0.0436220649,0.02696984,-0.0095059108,-0.011914717,-0.0067474721,-2.91593933,19.4638672,-46.5879517,2
3.11644292,0.0477480239,0.00983840885,0.00536171501,0.998796553,0.019230163,0.0956323264,0.00981600484,0.187710218,-0.936403921,-9.76003555,0.00352700508,0.00939735842,0.0106973351,-0.0216714963,-0.0367606767,-0.00522441044,-2.99367523,19.4612732,-46.7749939,2
3.12640092,0.0476246546,0.00965184502,0.00532713653,0.998804432,0.0188600463,0.09538283,0.00976675288,0.184102256,-0.933968365,-9.76033775,0.0309273272,-0.0106954354,-0.0383808763,-0.0313691311,-0.0384336747,-0.00274846982,-2.91530609,19.59375,-46.4920349,2
3.13635892,0.0474901153,0.0095085792,0.00533361094,0.998812188,0.0185729903,0.0951121799,0.009795855,0.181305173,-0.931326179,-9.76064287,0.063951243,-0.0390752883,-0.107957101,-0.026301669,-0.0230776221,0.00818061084,-2.95513153,19.4264679,-46.6999512,2
3.14631592,0.047397774,0.00942495552,0.00540847692,0.998816978,0.0183987812,0.0949278583,0.00995570026,0.179607922,-0.929526802,-9.7608457,0.0919847119,-0.0633203065,-0.145911861,-0.0127485935,-0.0110554034,0.0229147095,-2.99489594,19.4476624,-46.7861633,2
3.15627392,0.0473956181,0.0093952468,0.00553790067,0.998816684,0.0183268438,0.0949256243,0.0102182884,0.178905802,-0.929504955,-9.76086031,0.073533219,-0.0200968855,-0.170586868,0.00910077896,0.00201672316,0.0287371799,-3.001297,19.3673248,-46.8153076,2
3.16623192,0.0475118605,0.00941058477,0.00566488043,0.998810333,0.0183445023,0.095160852,0.0104696123,0.179074144,-0.931801323,-9.76063819,0.0241340868,0.0448976378,-0.262686475,0.0350017622,0.00153579609,0.0234087631,-2.84677124,19.4396515,-46.7633972,2
3.17618892,0.0477360866,0.00939192023,0.00575091715,0.998799275,0.0182968163,0.0956111665,0.010640153,0.17860101,-0.936197366,-9.76022669,-0.00771450163,0.0609654139,-0.331482948,0.0544596128,-0.00722547108,0.0118844667,-2.84677124,19.4396515,-46.7633972,2
3.18614692,0.048024186,0.00933737031,0.00579906772,0.998785711,0.018180108,0.0961882944,0.0107370504,0.177452041,-0.941831061,-9.75970529,-0.0329017691,0.0648035308,-0.260476983,0.0588410012,-0.0134580825,0.00999910384,-2.89167023,19.3723602,-46.6667175,2
3.19610492,0.0483062566,0.00924877138,0.00584151256,0.998772702,0.0179956081,0.0967528764,0.0108259821,0.175641777,-0.947341933,-9.75920494,-0.0263030832,0.0385911581,-0.157727971,0.0559176505,-0.020361796,0.00929709524,-2.99185181,19.243042,-46.605011,2
3.20606192,0.0485701766,0.00913765643,0.00587136289,0.998760814,0.0177672545,0.0972806428,0.0108922524,0.173404319,-0.952493251,-9.75874317,0.0164861476,0.0189026342,-0.0748410137,0.0505360588,-0.0272509083,0.00590309454,-2.98812866,19.235321,-46.8133545,2
3.21601992,0.0488002762,0.00897440949,0.00588484813,0.998750992,0.0174361336,0.0977398195,0.0109314782,0.170165355,-0.956974854,-9.75836206,-0.00451614398,-0.00893748582,0.0046837739,0.0404139161,-0.0376305804,0.00354326703,-2.90825653,19.198822,-47.015564,2
3.22597792,0.0489993045,0.00878760136,0.00588062121,0.998742797,0.0170597207,0.0981362026,0.0109381292,0.16648568,-0.960843366,-9.75804525,-0.00397887704,-0.014047157,0.0696095428,0.0365074798,-0.0387862474,-0.00156846689,-3.06958008,19.0913391,-46.8587952,2
3.23593492,0.0491568951,0.00860621251,0.00585649389,0.998736876,0.0166965298,0.0984493682,0.0109051035,0.162936609,-0.963899685,-9.75780384,-0.0150942914,-0.0371774919,0.0744552293,0.0271017272,-0.0350114815,-0.00403082557,-3.10757446,19.1486511,-46.750946,2
3.24589292,0.0492446663,0.00843952285,0.00583136233,0.998734166,0.0163635949,0.098622887,0.0108697911,0.159685133,-0.965593045,-9.75768986,-0.0232152732,-0.0103450145,0.156193601,0.0111005967,-0.0334043764,-0.00226353272,-3.15078735,19.109726,-46.8635254,2
3.25585092,0.0492666335,0.00825272307,0.00581655294,0.998734581,0.0159898792,0.0986645864,0.0108582377,0.156037881,-0.966000018,-9.75770857,-0.0334842999,0.0355517173,0.211877495,-0.00103249913,-0.040818084,-0.000893336255,-3.08644104,19.2067108,-46.6578369,2
3.26580792,0.0492552539,0.00803678947,0.00580343554,0.998737057,0.0155578293,0.0986392538,0.0108534738,0.151822428,-0.965752765,-9.75779975,-0.0349551123,0.040093014,0.140591543,-0.00222705468,-0.0448681638,0.00035285484,-3.06416321,19.2621002,-46.7376404,2
3.27576592,0.0492332019,0.0078216213,0.00581025799,0.998739794,0.0151254419,0.098592859,0.0108887986,0.147603943,-0.96529998,-9.75790906,-0.0513866071,-0.000761997348,0.071418638,-0.00466224924,-0.0414614454,0.00613324577,-3.04821777,19.1146088,-46.6586914,2
3.28572392,0.0492096789,0.0076562679,0.00583780505,0.998742051,0.0147910167,0.0985443593,0.0109607932,0.144341342,-0.964826736,-9.75800492,-0.0484232455,-0.0136552351,0.0248269827,-0.00458385702,-0.0216001011,0.00794678554,-3.07501221,19.289032,-46.5728455,2
3.29568092,0.0491961261,0.0076251452,0.00588104116,0.998742763,0.0147243953,0.0985175237,0.011050848,0.143691628,-0.964564798,-9.75804058,-0.0407405821,-0.017658041,-0.0251163211,0.00019252277,0.0099759344,0.0098109981,-3.18956757,19.1375732,-46.8128052,2
3.30563892,0.0492349882,0.00771779451,0.00594342656,0.998739784,0.0149038214,0.0985972967,0.0111663655,0.145441321,-0.965343308,-9.7579377,-0.0124131169,-0.0447121252,-0.0189344176,0.017371729,0.0253894962,0.0145188216,-3.15644836,19.1390686,-46.5961304,2
3.31559692,0.049356764,0.00784800864,0.00603908869,0.99873212,0.0151545248,0.0988440355,0.0113437712,0.147884056,-0.967751246,-9.75766239,0.0288383099,-0.039012233,-0.000205751705,0.0325650647,0.0277730245,0.0212323852,-3.07640839,19.0323944,-46.7059021,2
3.32555392,0.0495368738,0.00798273692,0.0061575955,0.998721476,0.0154113917,0.0992080465,0.0115656921,0.150385034,-0.971303458,-9.75727076,0.0451917071,-0.0175034349,-0.0332177945,0.0369818546,0.0285729244,0.023292359,-3.14102936,19.0799713,-46.5562134,2
3.33551192,0.0497035397,0.00810588917,0.00628291298,0.998711371,0.0156444044,0.0995451591,0.011802552,0.152653463,-0.974593074,-9.75690777,0.00596278086,0.01646189,-0.0358259311,0.0279265735,0.0230228975,0.0238750577,-3.14683533,19.0317841,-46.5395813,2
3.34546992,0.0498030272,0.00818372732,0.00638440135,0.998705131,0.0157894718,0.099746896,0.0119970388,0.154065759,-0.976561671,-9.75668858,-0.0333078474,0.0356388111,0.031442017,0.0111149969,0.0103035122,0.0151339397,-3.02427673,19.1836853,-46.7854309,2
3.35542692,0.0498153176,0.00816735286,0.0064372363,0.998704291,0.0157511752,0.0997721408,0.012104564,0.15369172,-0.976807974,-9.75666987,-0.0299410561,0.0777837161,0.0553653289,-0.00635960046,-0.0162647143,0.00712581445,-2.97722626,19.2276306,-46.8662415,2
3.36538492,0.0497454455,0.00801747313,0.00646357357,0.998708805,0.015448396,0.0996308177,0.012173458,0.150739738,-0.975428941,-9.756854,0.0123656062,0.0922661958,0.0940057329,-0.0227676854,-0.0396495908,0.00700165331,-2.95213318,19.2691345,-46.820343,2
3.37534292,0.0496039121,0.00776808638,0.00650058186,0.998717599,0.0149455857,0.0993449263,0.0122746649,0.145838029,-0.972639164,-9.75720705,0.0407604101,0.059997884,0.0430336706,-0.03205413,-0.0575516298,0.010811572,-2.99337006,19.2042542,-46.8493042,2
3.38529992,0.0494398266,0.00746384648,0.00654937711,0.998727791,0.0143317843,0.0990133273,0.012405142,0.13985363,-0.969403251,-9.7576168,0.0106821741,0.0400024862,-0.0488835656,-0.0352504961,-0.0581346191,0.0120442072,-2.95860291,19.2536163,-46.8366089,2
3.39525792,0.0492809117,0.00720271549,0.00660018563,0.998737268,0.0138043248,0.0986925815,0.0125351145,0.134711152,-0.966273209,-9.75799966,-0.0446289587,0.0243028858,-0.0995271267,-0.0305697247,-0.047250811,0.0118319551,-2.85935974,19.228714,-46.7626953,2
3.40521592,0.0491631988,0.00696943552,0.00664217622,0.998744426,0.0133332309,0.0984545068,0.01264396,0.130117267,-0.963949807,-9.75829134,-0.0663712733,-0.000915069018,-0.134250065,-0.0171745326,-0.048890315,0.00970279146,-2.9642334,19.2807312,-46.7674255,2
3.41517292,0.0491028532,0.00672268055,0.00666140135,0.998748849,0.0128367109,0.0983307837,0.0127076539,0.12527359,-0.962742404,-9.75847429,-0.0598816007,0.0107463619,-0.155914784,-0.00678926893,-0.0485118851,0.00454850961,-3.02007294,19.3677979,-46.7747803,2
3.42513092,0.0490947713,0.00651035401,0.00666442364,0.99875063,0.0124103066,0.0983119345,0.0127347813,0.121112753,-0.962558426,-9.75854502,-0.0374649762,-0.0323836087,-0.115292267,0.00340989279,-0.0362400338,-0.000588143012,-3.2168045,19.3314514,-46.6159058,2
3.43508892,0.0491174686,0.00635773926,0.00665156428,0.998750589,0.012104973,0.0983552801,0.0127237909,0.118132632,-0.962981474,-9.75853976,-0.0163786869,-0.0630851825,-0.031949382,0.00560806599,-0.0262313448,-0.000413705828,-3.15673065,19.4017792,-46.5318909,2
3.44504592,0.0491376079,0.00623619752,0.00665332155,0.99875036,0.0118605964,0.0983940785,0.0127391103,0.115747426,-0.963360098,-9.75853099,0.0475075646,-0.0703380763,0.0480979682,0.00328471907,-0.0246350393,0.00419758726,-3.17353821,19.4278564,-46.6792908,2
3.45500429,0.0491321242,0.00612356017,0.00667850751,0.998751162,0.0116320763,0.0983819546,0.012800855,0.113517539,-0.963241732,-9.75856898,0.0911870588,-0.0206271199,0.0487345126,-0.00427013636,-0.0224254131,0.00928528979,-3.22421265,19.338974,-46.6743469,2
3.46496229,0.0491018154,0.00602821069,0.00670889707,0.998753016,0.011438038,0.09832039,0.012871588,0.111624675,-0.962640917,-9.75864965,0.0881418824,0.0151340024,-0.00969254197,-0.00611335691,-0.0148210414,0.00358228502,-3.27650452,19.3520966,-46.5786438,2
3.47491929,0.0490920554,0.00599034582,0.00671150034,0.998753817,0.0113618927,0.0983003996,0.0128806534,0.110881821,-0.962445833,-9.7586777,0.0175076088,0.0117965285,-0.0967541548,0.00348787149,5.77738974E-05,-0.00265776739,-3.40047455,19.1750641,-46.6503906,2
3.48487729,0.049142027,0.00602298121,0.00670925589,0.99875121,0.011427032,0.0984008586,0.0128724154,0.111516383,-0.963426222,-9.75857366,0.0038545748,0.0334269072,-0.165242585,0.0168785769,0.0178541876,0.00163919409,-3.3615799,19.087738,-46.6534424,2
3.49483529,0.0492495745,0.00616482452,0.00674005983,0.998744741,0.0117074328,0.0986183856,0.0129190983,0.114250238,-0.965549132,-9.75833225,0.0258109431,0.0256737358,-0.153961897,0.0272422675,0.0371384025,0.00915569998,-3.34469604,19.0491486,-46.7102051,2
3.50479229,0.0493775655,0.00635358462,0.00680766187,0.998736808,0.0120781132,0.0988779307,0.0130347105,0.117864419,-0.968082012,-9.75803824,0.0528724617,-0.0199766201,-0.0903600699,0.0231658258,0.0396072716,0.0145294378,-3.30090332,19.1661835,-46.5886536,2
3.51475029,0.0494544147,0.00655474638,0.00690344452,0.998731122,0.012471479,0.0990356385,0.0132061398,0.121700983,-0.969620985,-9.75783833,0.0557695806,0.0204680569,-0.0393845004,0.00647472963,0.0403790586,0.0181281678,-3.18516541,19.1966553,-46.6913147,2
3.52470829,0.0494507357,0.00671203241,0.0069957125,0.998729489,0.0127780768,0.0990315185,0.0133757518,0.124692758,-0.969580799,-9.75780443,0.0512814114,0.0799837104,-0.0156254392,-0.00735354424,0.0233300887,0.015924817,-3.21259308,19.3738708,-46.6085205,2
3.53466529,0.0493967242,0.00675470171,0.00705846739,0.998731512,0.0128581535,0.0989247548,0.0134981083,0.125475469,-0.968538962,-9.75789795,0.0222172021,0.0870222307,-0.0572813916,-0.0146495402,-0.00870480854,0.0093247043,-3.21259308,19.3738708,-46.6085205,2
3.54462329,0.0493209415,0.00663989023,0.00707844862,0.998735872,0.0126266372,0.0987717092,0.013550487,0.123218219,-0.967045435,-9.75807506,0.0129523566,0.107076519,-0.0755097068,-0.015499495,-0.0361186378,-0.000712284818,-3.13398743,19.3014374,-46.7111206,2
3.55458129,0.0492646366,0.00644435265,0.00705007607,0.998740026,0.0122376371,0.0986559537,0.0135135486,0.119423686,-0.965915774,-9.75823405,0.0119584867,0.0673403558,-0.0954021557,-0.00624447782,-0.0408968814,-0.00703596091,-3.13033295,19.2030487,-46.7221375,2
3.56453829,0.0492547193,0.00625011498,0.00701205931,0.998742099,0.0118516304,0.0986330228,0.0134565895,0.1156572,-0.965691975,-9.75830127,0.0300902096,0.0098053547,-0.0594213263,0.00233931164,-0.034212999,-0.00260399049,-3.14756775,19.1403809,-46.8447571,2
3.57449629,0.049267149,0.0061087603,0.00701858336,0.998742238,0.0115670851,0.098656074,0.0134835602,0.112880255,-0.965916943,-9.75831179,0.124146084,0.00539155685,-0.000603811112,0.00268898462,-0.0227952302,0.00788353756,-3.04270172,19.2394562,-46.8746033,2
3.58445429,0.0492881021,0.00604632952,0.00708058521,0.998741278,0.0114353609,0.0986979098,0.0136139948,0.111594389,-0.966325231,-9.75828607,0.161494594,0.0234570826,0.00251344413,0.00425450224,0.00162288127,0.0162922665,-3.2420578,19.1510773,-46.7433167,2
3.59441129,0.0493135571,0.00615215837,0.00717015207,0.998738684,0.0116385898,0.0987513609,0.0137830314,0.113576951,-0.966846844,-9.75821126,0.0987591745,0.0536069409,-0.0719312637,0.00726840179,0.037871968,0.0169782937,-3.09223938,19.2077789,-46.9769897,2
3.60436929,0.0493555131,0.00636778892,0.00725825029,0.998734687,0.0120621561,0.0988394162,0.0139380373,0.117709164,-0.967706164,-9.7580774,0.00454514175,0.0423456152,-0.143891754,0.0133723198,0.0459594354,0.0146548431,-3.21292877,19.2097626,-46.8332825,2
3.61432729,0.0494667028,0.00661304689,0.00733555095,0.998726928,0.0125453632,0.0990664397,0.0140676094,0.122421561,-0.969921575,-9.75779917,-0.0155799286,0.0450099391,-0.224375157,0.0347292759,0.0525837839,0.0114404075,-3.24044037,19.2210541,-46.7204895,2
3.62428429,0.0497086317,0.00686682638,0.00738492711,0.998712841,0.0130467556,0.0995550901,0.0141386384,0.127307836,-0.974690032,-9.75726199,-0.0520397646,0.0560631019,-0.323224823,0.0633961633,0.0447554551,0.00619500084,-3.08375549,19.3257294,-46.8448486,2
3.63424229,0.050062656,0.007030652,0.00742154685,0.998693798,0.0133673863,0.100266805,0.0141915103,0.130427,-0.981634736,-9.75652433,-0.101845852,0.0252992764,-0.217868844,0.0765769482,0.0240933187,0.00631910423,-3.02327728,19.3247833,-46.644043,2
3.64420029,0.0504263832,0.00712416407,0.00746038937,0.998674531,0.0135464847,0.100997001,0.0142556352,0.132164628,-0.988759255,-9.7557814,-0.0735063219,0.020153511,-0.0565542464,0.0667146072,0.0121866511,0.0085701067,-3.08737183,19.2070923,-46.8838806,2
3.65415729,0.0507053786,0.00717397504,0.00751536648,0.998659644,0.0136372662,0.101557145,0.0143575361,0.133042699,-0.994224242,-9.75521383,-0.017222837,0.0111035778,0.113913964,0.0447286107,0.00880177319,0.0137161333,-3.03898621,19.209259,-46.8691101,2
3.66411529,0.0508519453,0.0072266995,0.00759853397,0.998651233,0.0137327032,0.101852551,0.0145173303,0.133969668,-0.997106227,-9.75490754,0.062953793,0.0494496751,0.170619017,0.0148343677,0.00912240148,0.0186269414,-2.95367432,19.3350372,-46.7932434,2
3.67407329,0.0508602758,0.00725136339,0.00768596101,0.998649871,0.013773164,0.101870788,0.0146902401,0.134364111,-0.997284141,-9.75488357,0.0308361509,0.087785251,0.164161219,-0.0082536405,-0.000269502634,0.0168293081,-2.96704865,19.2441559,-46.8482666,2
3.68403029,0.0508002946,0.00723205507,0.00775248839,0.998652514,0.0137283976,0.101751303,0.0148265292,0.133929053,-0.996118458,-9.75500866,0.00702993517,0.0710572574,0.0502624528,-0.0129244328,-0.00562703144,0.0101111494,-2.90952301,19.1682587,-46.9867859,2
3.69398829,0.0507559652,0.00717091854,0.00780186899,0.998654919,0.0136012058,0.101662308,0.0149324667,0.132689501,-0.995250224,-9.75511446,-0.0288406297,0.0284400587,-0.0705395171,-0.00517356861,-0.0195399169,0.0124254376,-2.86637115,19.3049316,-46.9655457,2
3.70394629,0.0507486213,0.0070793362,0.00786606393,0.998655428,0.013410873,0.101647093,0.0150707991,0.130832977,-0.995101829,-9.75515479,-0.0265352023,0.0332297041,-0.0993792426,0.0039892015,-0.011868434,0.0146583347,-2.88121796,19.254364,-46.9174805,2
3.71390329,0.0507978414,0.00704523252,0.00792951674,0.998652573,0.0133352329,0.10174598,0.0152010967,0.130093786,-0.996066582,-9.75506594,-0.0328289778,0.00486548714,-0.112186702,0.0196725577,-0.0008871553,0.0106875608,-2.96787262,19.1448822,-46.8701782,2
3.72386129,0.0509473323,0.00706500578,0.00797566674,0.998644502,0.0133681202,0.102046259,0.0152899592,0.130410606,-0.998995986,-9.75476199,-0.0784860009,-0.0393409535,-0.113987029,0.0399067067,0.0108860508,0.00713103916,-2.92421722,19.205307,-46.6843567,2
3.73381929,0.0511911583,0.00714131001,0.00801517523,0.99863127,0.0135138458,0.102536238,0.0153585326,0.131825486,-1.00377591,-9.75425229,-0.0483273565,0.00898351692,-0.101927174,0.0570422858,0.0180310439,0.00670306943,-2.97494507,19.1215363,-46.9782715,2
3.74377629,0.0515087039,0.00723760156,0.00803460067,0.998613981,0.0137007192,0.103173874,0.0153837399,0.133639505,-1.00999596,-9.75358535,-0.0707913456,0.0508173102,-0.0717687667,0.0695321336,0.01541223,-0.00041698385,-2.87902832,19.1158447,-46.9773865,2
3.75373429,0.0518553156,0.00724463683,0.00801862658,0.998596139,0.013711641,0.103867883,0.0153467022,0.13373638,-1.01676545,-9.752881,-0.062358905,0.0517510108,-0.0259358208,0.0675675198,-0.0161281209,-0.00696489774,-2.96572876,19.0768738,-47.1732483,2
3.76369229,0.0521349638,0.00709718702,0.00797919002,0.998583019,0.0134157518,0.104425121,0.0152795686,0.130842987,-1.02220048,-9.75235201,-0.0504872288,0.0509012621,0.0844166513,0.0420328192,-0.0452380739,-0.00380114396,-2.94623566,19.1685333,-47.1143188,2
3.77364929,0.0522404696,0.00682914381,0.00796810878,0.998579407,0.0128771477,0.104632157,0.0152842439,0.125587578,-1.02421971,-9.75220938,-0.0223372574,0.0505262183,0.210866856,0.000703753904,-0.0585189946,0.00699850684,-2.9744873,19.0971985,-47.1376343,2
3.78360729,0.0521371154,0.0065036682,0.00799438368,0.998586759,0.0122222212,0.104420509,0.0153723396,0.11920322,-1.02215547,-9.75250574,0.0587162467,0.079137688,0.232412333,-0.0381707959,-0.0667174906,0.00917701051,-2.96748352,19.1423187,-46.9310608,2
3.79356529,0.0518906362,0.006204349,0.00801791078,0.998601315,0.0116221962,0.103922565,0.015453482,0.113357353,-1.01729876,-9.75308324,-0.00187698199,0.0491418512,0.223113759,-0.0545343235,-0.0464489758,0.00820229389,-2.98628998,19.1843567,-47.0463257,2
3.80352229,0.0516333328,0.00606502355,0.00807452868,0.998615092,0.0113402354,0.103405779,0.0155842502,0.110613306,-1.01225806,-9.75363971,-0.0193340113,0.059064914,0.0830102916,-0.0451719053,-0.00638737436,0.0166382082,-2.99797821,19.1648102,-46.9215393,2
3.81348029,0.05148001,0.00608736697,0.00817857648,0.998621962,0.0113765453,0.103100266,0.0157923692,0.110970978,-1.00927795,-9.75394425,0.0171191666,0.0515956741,-0.050910103,-0.0154113434,0.0168822631,0.0243861452,-3.05371857,19.1079254,-46.9589233,2
3.82343829,0.0514785186,0.00620408193,0.00831101177,0.998620237,0.0115972081,0.103100664,0.0160462283,0.113123298,-1.00928182,-9.75391911,-0.00717953624,0.0526470829,-0.137125913,0.0171766449,0.0322920978,0.0261884611,-3.07338715,19.2067108,-46.8399048,2
3.83339529,0.051628962,0.00638421317,0.00843909068,0.998610285,0.0119433589,0.103406366,0.0162832002,0.116495934,-1.01226376,-9.75357015,-0.0641223984,0.109947398,-0.167252755,0.0433821492,0.0422411337,0.0210735928,-3.00545502,19.2325287,-46.8796387,2
3.84335329,0.0518612583,0.00659492082,0.0085399606,0.998596018,0.0123524327,0.103876241,0.0164613704,0.120479962,-1.01684699,-9.75304525,-0.0902528101,0.107497667,-0.122736737,0.0483128503,0.0392612815,0.0146625265,-3.11328125,19.0995331,-46.6717834,2
3.85331129,0.0520682817,0.00673701345,0.00861007316,0.998583649,0.012627266,0.104294051,0.0165850615,0.123155045,-1.02092213,-9.75258582,-0.0978659337,0.0639879766,-0.0147089088,0.0323381424,0.0182702467,0.0110880323,-2.97570038,19.0591278,-46.7918396,2
3.86326829,0.0521701112,0.00675769994,0.00864651854,0.9985779,0.0126634159,0.104498785,0.0166549639,0.123504945,-1.02291893,-9.75237247,-0.0266890594,0.00942183527,0.104338326,0.00661055977,-0.00825826637,0.0059422818,-2.99485779,19.0793915,-46.6620483,2
3.87322629,0.0521295239,0.00668375912,0.00866774415,0.998580424,0.0125133293,0.104416546,0.0167057971,0.122042298,-1.02211682,-9.75247476,0.02220869,-0.0231034469,0.184946233,-0.0219118949,-0.0180115607,0.00351427775,-2.81515503,19.1546783,-46.8123474,2
3.88318429,0.0519638528,0.00657937802,0.00868325792,0.998589592,0.0123046646,0.104083212,0.0167496666,0.120011486,-1.01886571,-9.75284008,0.0613496548,-0.0148324621,0.238133633,-0.0441178083,-0.0236885026,0.00705549307,-2.81515503,19.1546783,-46.8123474,2
3.89314129,0.0517099507,0.00644602844,0.00873077219,0.998603231,0.0120359023,0.103573084,0.0168616616,0.117396527,-1.01388997,-9.7533907,0.0874577178,0.018798297,0.209653973,-0.0582160503,-0.0270017423,0.0136755789,-2.90010834,19.227417,-47.0977173,2
3.90309929,0.0514209682,0.00632929428,0.00879287339,0.998618375,0.0117996228,0.102993141,0.0170014401,0.115098918,-1.00823297,-9.75400445,0.0667111179,0.0490543191,0.10731705,-0.058645647,-0.0198782459,0.0132686421,-2.95596313,19.1946106,-46.9286499,2
3.91305729,0.0511471685,0.00621598527,0.00884357208,0.998632682,0.0115712467,0.102443502,0.0171176753,0.112877725,-1.00287129,-9.75458313,-0.0136676562,0.0520723517,-0.0427893404,-0.051589869,-0.0234221146,0.0100233145,-3.01798248,19.199234,-46.8844299,2
3.92301429,0.0509274936,0.00611635638,0.00888181673,0.998644166,0.0113708161,0.102002326,0.0172068487,0.110927623,-0.998567386,-9.75504724,-0.089529099,0.0191876617,-0.201988553,-0.0339453332,-0.0113615301,0.0062938286,-3.12306213,19.1867523,-46.8158569,2
3.93297229,0.0508179623,0.00609965067,0.0089187095,0.998649502,0.0113352713,0.101783119,0.0172836926,0.110583367,-0.996428839,-9.75526936,-0.0790094768,-0.0137762311,-0.273292625,-0.00795101747,0.00372873992,0.00590447523,-2.98426819,19.254715,-46.8574219,2
3.94293029,0.0508385052,0.00612073417,0.00895347754,0.998648035,0.0113737117,0.101825018,0.0173511472,0.110957881,-0.996837639,-9.75522376,-0.047211897,-0.0263859026,-0.290996039,0.0131900804,0.00514575932,0.0060476847,-2.94441986,19.2553406,-46.9399414,2
3.95288729,0.0509512416,0.00613896183,0.0089922999,0.998641879,0.0114044916,0.102051538,0.0174261401,0.111255568,-0.999047497,-9.75499405,0.00875412861,-0.0137013392,-0.195606743,0.0260238536,0.00212067459,0.00855824724,-3.09033203,19.1630249,-46.990509,2
3.96284529,0.0510844963,0.00615259863,0.00903588711,0.998634527,0.0114252089,0.102319112,0.0175109661,0.111454606,-1.00165783,-9.754724,0.0284569002,0.0315556334,-0.0959188731,0.0244943388,0.00255572237,0.00725917565,-3.02523804,19.1824493,-46.9074402,2
3.97280329,0.0511810624,0.00615669727,0.00906911542,0.998629254,0.0114284271,0.102512939,0.0175763286,0.111483787,-1.00354868,-9.75452935,0.0553625159,0.0958453694,-0.00603168138,0.014154084,0.00110856071,0.00602559978,-2.92206573,19.1544189,-46.9546509,2
3.98276029,0.0512109481,0.0061589091,0.00909337636,0.998627553,0.0114298749,0.10257311,0.0176245275,0.111497213,-1.00413561,-9.75446915,0.0394874767,0.12845475,-0.00025660511,0.000319681596,-0.00381076615,0.00316554401,-3.05391693,19.0868683,-46.9382629,2
3.99271829,0.0511816971,0.00611620718,0.00909855128,0.998629284,0.0113440864,0.10251384,0.0176396006,0.110661072,-1.00355745,-9.75453812,0.0331410394,0.104233843,-0.0193412448,-0.0114349788,-0.0148652811,-0.000176989473,-2.99752808,19.123291,-47.0445251,2
4.00267629,0.0510939352,0.00602686422,0.00908586177,0.998634388,0.0111674596,0.10233637,0.0176241492,0.108940139,-1.00182617,-9.7547351,-0.00643804282,0.0532717907,-0.0357534504,-0.0220985133,-0.0174131989,-0.00239992468,-3.10553741,19.0828247,-47.0784302,2
4.01263329,0.0509766456,0.00593320857,0.00907465472,0.998641062,0.0109825132,0.102099722,0.0176123603,0.107138634,-0.999517599,-9.75499229,-0.0139140595,-0.0114356593,-0.0298106164,-0.02451187,-0.0193698239,-0.00107926317,-3.04447174,19.0838318,-47.1201172,2
4.02259129,0.0508829523,0.00582582719,0.00908017249,0.998646444,0.010767906,0.101910268,0.0176353009,0.105047178,-0.997669341,-9.75520389,-0.00404144828,-0.0418647729,-0.0257078572,-0.0131953936,-0.0226396862,0.00361966179,-2.9959259,19.2391968,-47.0565186,2
4.03254929,0.0508522785,0.00570819815,0.00910409728,0.998648365,0.0105297955,0.101847008,0.0176956502,0.102725028,-0.997052159,-9.75529157,-0.0100989765,0.000913023192,-0.0223281517,-0.000559758861,-0.0234916322,0.00935398042,-3.10411835,19.2298889,-46.9674988,2
4.04250629,0.0508745857,0.00561060153,0.00914901164,0.998647374,0.0103288724,0.101890413,0.0177956274,0.100764514,-0.997475645,-9.75526877,-0.00275151806,0.0496694553,-0.014420155,0.00784626044,-0.0144511759,0.00972959213,-2.97772217,19.1911011,-47.1339417,2
4.05246429,0.0509039967,0.0055823629,0.00919006259,0.998645686,0.0102674749,0.10194923,0.0178806937,0.100164959,-0.998049426,-9.75521675,0.00802339405,0.0765794549,0.00288520005,0.00375537877,0.00324899191,0.00754313683,-2.9958725,19.1376648,-47.150177,2
4.06242229,0.0508819113,0.00561860789,0.0092506491,0.998646027,0.0103344169,0.101906278,0.0179988207,0.100818436,-0.997630397,-9.75525241,0.0551043033,0.10339447,0.0129471599,-0.01149802,0.0117534902,0.0153632052,-2.99700928,19.1812744,-46.9526978,2
4.07237929,0.0507805023,0.00569298562,0.00932828446,0.998650039,0.0104775445,0.101705362,0.0181479692,0.102216777,-0.995670276,-9.75543828,0.0686697138,0.113704632,0.0141799165,-0.0244609546,0.0208577737,0.0126702171,-3.11699677,19.1190491,-47.0110474,2
4.08233729,0.0506696024,0.00579336446,0.00937919595,0.998654601,0.0106757913,0.101485654,0.0182409199,0.104153097,-0.993526761,-9.75563644,0.00253888909,0.031953912,-0.0999450598,-0.0157046374,0.0185369477,0.00460889051,-3.01428223,19.1704254,-47.1030273,2
4.09229529,0.0506637535,0.00584961158,0.00939668966,0.99865443,0.0107870365,0.10147516,0.0182703623,0.105238472,-0.993424397,-9.75563527,-0.061693582,-0.0305473332,-0.195564658,0.0114300437,0.000332644675,0.00320567051,-3.02581024,19.0910797,-46.9914856,2
4.10225229,0.0507872653,0.00576661321,0.00939549491,0.99864865,0.0106183842,0.101720958,0.018275335,0.103590568,-0.995822471,-9.75540847,-0.0979040007,-0.0399706297,-0.14596213,0.0330939814,-0.0347650871,-0.000769983046,-2.95952606,19.2542877,-47.1375122,2
4.11221029,0.0509321327,0.00553458467,0.00937370206,0.998642832,0.0101522479,0.102006588,0.0182540805,0.0990403113,-0.99860896,-9.75517057,-0.115350472,-0.0211729172,0.0013432313,0.0199861694,-0.0565891638,-0.00245496514,-2.91436005,19.1722717,-47.0953369,2
4.12216829,0.0509282602,0.00522794242,0.00934491149,0.998644991,0.00953959591,0.101992953,0.0182277275,0.0930639037,-0.998475981,-9.75524305,-0.0804940071,-0.0310322671,0.176940621,-0.023123201,-0.0652637929,-0.00189293199,-2.97238159,19.2936096,-47.1567688,2
4.13212529,0.0506851156,0.00495236045,0.00933872699,0.998658736,0.00899116339,0.101500959,0.0182452926,0.0877182045,-0.993676107,-9.75578257,-0.0172385278,-0.0346351139,0.309011589,-0.0709306672,-0.0410644412,0.00563049782,-2.98556519,19.2107086,-47.1167603,2
4.14208329,0.0502580237,0.00484493886,0.00939438499,0.998680374,0.00877733285,0.100644257,0.0183709735,0.0856395533,-0.98531759,-9.75664883,0.0345198078,-0.0558624647,0.312122414,-0.0939817876,-0.0047556553,0.018617738,-2.95901489,19.3087158,-46.9354248,2
4.15204129,0.0498319419,0.00492478664,0.00951760037,0.998700214,0.00893277093,0.0997936409,0.018613311,0.0871635663,-0.977017744,-9.75747008,0.0542443255,-0.121772715,0.157470197,-0.0705177411,0.0389662609,0.0292176493,-3.04551697,19.3188477,-46.8782959,2
4.16199829,0.0495863311,0.00519013446,0.00969549822,0.998709293,0.00945205329,0.0993084536,0.0189457229,0.0922349056,-0.972283263,-9.7578962,0.034508501,-0.128452558,-0.0595271247,-0.0234726854,0.0686053932,0.0363491736,-2.9756012,19.4551239,-46.8059082,2
4.17195629,0.0495848992,0.00553446657,0.00988689824,0.998705673,0.0101241845,0.0993140577,0.0192956231,0.0987934147,-0.972337989,-9.75782664,-0.0179887799,-0.0927840822,-0.193821613,0.0197727885,0.0740278587,0.0324713439,-3.00048065,19.3601074,-47.0195312,2
4.18191429,0.049739172,0.00585917814,0.0100283416,0.998694706,0.0107590185,0.0996307566,0.0195458088,0.10498468,-0.975428356,-9.75745372,-0.0702684177,0.00368022288,-0.241031108,0.0388010554,0.0584679842,0.0190699473,-2.89015961,19.3940277,-46.9039307,2
4.19187129,0.0499213254,0.00605711762,0.0100986103,0.99868372,0.0111459305,0.100000151,0.0196653831,0.108755924,-0.979032883,-9.75705156,-0.0789776934,0.0675885584,-0.248466811,0.0315492675,0.0215126276,0.00335276965,-2.8286438,19.4555206,-46.8908386,2
4.20182929,0.0500275326,0.00608042699,0.0100979087,0.99867828,0.0111908122,0.100213271,0.0196606473,0.109191493,-0.981112393,-9.75683763,-0.0280875463,0.0945079833,-0.230125683,0.00841368735,-0.0123534352,-0.00298003433,-3.01486206,19.3802795,-46.7154541,2
4.21178729,0.0500048994,0.00596725799,0.0100697448,0.998680345,0.0109668821,0.100165409,0.0196157007,0.107007162,-0.98064536,-9.75690894,0.0305101521,0.100774643,-0.189053668,-0.0186269842,-0.0302863624,-0.00651564682,-3.05030823,19.3514252,-46.5870056,2
4.22174429,0.0498785829,0.00580455122,0.0100236511,0.998688072,0.0106472362,0.0999087852,0.0195406373,0.103891076,-0.978141341,-9.7571936,0.0587653648,0.112935109,-0.232312964,-0.029589748,-0.0357519202,-0.00706259254,-3.18985748,19.1199799,-46.726593,2
4.23170229,0.0497697534,0.00563737674,0.00998319694,0.998694955,0.010317723,0.0996871869,0.0194771176,0.100678178,-0.975978976,-9.75744378,0.0758945414,0.0697720399,-0.297903335,-0.0110799791,-0.0327558666,-0.00435069529,-3.18985748,19.1199799,-46.726593,2
4.24166029,0.0498015145,0.00546366037,0.00997929496,0.998694303,0.00996880061,0.099747349,0.0194864201,0.0972729911,-0.976566055,-9.75741981,0.1054863,0.0217268978,-0.352395972,0.024147138,-0.0400493182,0.00577085186,-3.15467072,19.105011,-46.8579712,2
4.25161729,0.0500210951,0.00521864912,0.0100043656,0.998684458,0.00947033467,0.100182496,0.0195596381,0.0924052115,-0.980812095,-9.75704104,0.108708075,0.0171443193,-0.353522346,0.0612641498,-0.0580797158,0.00952697452,-3.17705536,19.2658234,-46.682251,2
4.26157529,0.0503808685,0.00490620612,0.0100307242,0.998667656,0.00883366598,0.100897018,0.0196415108,0.0861869763,-0.987783761,-9.75639456,0.108491902,0.0197764944,-0.291769946,0.0790087953,-0.0687467456,0.00731066149,-3.07377625,19.2669525,-46.8493652,2
4.27153329,0.0507621214,0.00453405577,0.0100344765,0.998650051,0.00807892015,0.101653163,0.0196844245,0.0788172969,-0.995161011,-9.75570716,0.0407434864,0.0319421485,-0.129053081,0.0699495226,-0.0811240524,0.0032906204,-3.25054932,19.2166748,-46.6319275,2
4.28149029,0.0510480929,0.00413298558,0.0100106043,0.998637468,0.00727067837,0.102217734,0.0196759321,0.0709282059,-1.00066881,-9.75520447,0.00359168152,0.0591474047,0.0544978984,0.0422973782,-0.0797943398,-0.00658994354,-3.25019836,19.088974,-46.8267212,2
4.29144829,0.0511697842,0.0037747975,0.0099394337,0.998633389,0.0065565081,0.102453894,0.0195692495,0.0639597597,-1.00297263,-9.75501626,-0.0479481799,0.11232801,0.221305248,0.00491512101,-0.067102246,-0.0139977923,-3.22470856,19.0454712,-46.9276123,2
4.30140629,0.0511389415,0.00350995829,0.00985103503,0.998636818,0.00603444241,0.102386405,0.0194191318,0.0588674004,-1.00231432,-9.75511563,-0.0446514856,0.0932641938,0.263902281,-0.0167355761,-0.0417854413,-0.0165834855,-3.10866547,19.1890106,-46.969696,2
4.31136329,0.0510348511,0.00334939841,0.00976375311,0.998643538,0.00572300482,0.102174338,0.0192607804,0.0558305033,-1.00024548,-9.75534593,-0.00854468255,0.0320886443,0.17435002,-0.0240494143,-0.022552358,-0.0139589403,-3.19419861,19.1279755,-46.9718323,2
4.32132129,0.0509319515,0.00330668354,0.00971711888,0.998649323,0.00564395628,0.101967186,0.0191719068,0.0550605235,-0.998224564,-9.75555753,-0.0300706829,-0.00928695685,0.115454764,-0.0139733814,0.00902563054,-0.00566606876,-3.32746124,19.092865,-46.8105469,2
4.33127929,0.0509280108,0.00343571719,0.0097127089,0.998649178,0.00590354919,0.10196175,0.01914985,0.0575930286,-0.998171591,-9.75554817,-0.0429281872,-0.0232563724,0.00261807354,0.014219908,0.0406538621,-0.000294206431,-3.21089172,19.1669922,-46.901001,2
4.34123629,0.0510544053,0.00366461069,0.00973531653,0.998641777,0.00635843781,0.102219395,0.0191712378,0.0620290702,-1.00068504,-9.75526351,-0.0627768929,-0.0493236376,-0.103310737,0.0350100957,0.0486971214,0.00380905066,-3.33870697,19.1692505,-46.8348389,2
4.35119429,0.0512372119,0.00387802108,0.00976055226,0.998631369,0.00678092387,0.102589736,0.019199106,0.0661480133,-1.00429782,-9.75486545,-0.04564731,-0.0252105022,-0.0597153408,0.0383259989,0.0348508134,0.00185908424,-3.26628113,19.3090515,-46.6208191,2
4.36115229,0.0513918766,0.00398947293,0.00975465605,0.998622931,0.00700243582,0.102901548,0.0191749921,0.0683066344,-1.00733952,-9.75453695,-0.032243602,-0.00555902237,0.0608633418,0.0220279675,0.0115448684,-0.00650627725,-3.20840454,19.157608,-46.6682739,2
4.37110929,0.0514457424,0.00398902819,0.00969763455,0.99862069,0.0070064445,0.103009006,0.0190602614,0.0683449754,-1.00838772,-9.75442823,0.00647416902,-0.00286481485,0.156223412,-0.00118441065,-0.0163730495,-0.015517083,-3.15926361,19.1992645,-46.7947998,2
4.38106729,0.0513655102,0.003824274,0.00960333936,0.998626465,0.00668686351,0.102844569,0.0188883463,0.0652287522,-1.00678372,-9.75461528,0.0446056052,0.0357836994,0.180801388,-0.0294841491,-0.0485539436,-0.018196106,-3.21647644,19.2640839,-46.7669983,2
4.39102529,0.0511853657,0.00355495943,0.00949912992,0.998637666,0.00616015658,0.102478079,0.0187076854,0.0600931885,-1.00320856,-9.75501626,0.0765263091,0.0202375361,0.0908218422,-0.0418753028,-0.0568659343,-0.0169611983,-3.13877869,19.230423,-46.8945923,2
4.40098229,0.0509736952,0.00329899264,0.00941059954,0.998650282,0.00565916549,0.102048912,0.0185570742,0.055208435,-0.999021851,-9.75547511,0.0876958191,-0.0198621999,-0.0447404745,-0.041913636,-0.0446414053,-0.0124004288,-3.30198669,19.2050171,-46.8229065,2
4.41094029,0.0508094098,0.00313440241,0.00935757752,0.998659637,0.00533710733,0.101716581,0.0184680554,0.0520683742,-0.995779728,-9.75582348,0.0915840953,-0.020710122,-0.182507023,-0.023340486,-0.0201017112,-0.00480562588,-3.35467529,19.2202759,-46.7997742,2
4.42089829,0.0507919278,0.00311623777,0.00934709016,0.99866067,0.00530202482,0.101681181,0.0184489144,0.0517263011,-0.995434348,-9.75586089,0.043144305,-0.0153692724,-0.281979205,0.0184187256,0.0105084144,-9.49152745E-05,-3.31748199,19.2510986,-46.6665039,2
4.43085529,0.0509891789,0.00322578505,0.00934281292,0.998650323,0.00551885386,0.102078178,0.0184284119,0.0538394664,-0.99930739,-9.75545348,0.0063152156,-0.00491217583,-0.3483768,0.0595033132,0.0299939625,-0.00505585177,-3.26038361,19.2809601,-46.7645874,2
4.44081329,0.0513498342,0.00340140026,0.00930050837,0.998631646,0.00586935421,0.102803393,0.018324005,0.0572544854,-1.006382,-9.75470646,-0.0262791497,-0.0250716052,-0.304531228,0.0831488892,0.0370723456,-0.014985404,-3.25444794,19.2266693,-46.7669067,2
4.45077129,0.0517699959,0.00357704829,0.00921805338,0.998610184,0.00622315364,0.103647515,0.0181384474,0.0607003835,-1.01461602,-9.7538326,-0.0396011297,0.000221095405,-0.17043197,0.08285328,0.0292447861,-0.0229722243,-3.2533493,18.9766083,-46.6562805,2
4.46072854,0.0520914656,0.00365771451,0.0091086352,0.998594072,0.00639094815,0.10429205,0.0179088464,0.0623328298,-1.02090255,-9.75316625,-0.0298611136,0.0120442197,0.0258247616,0.0457278453,-0.00078898191,-0.0202795453,-3.33105469,19.0274963,-46.7452393,2
4.47068654,0.0522117594,0.00362902572,0.00904004918,0.998588512,0.00633845369,0.104532004,0.0177735705,0.0618192862,-1.0232429,-9.75292426,0.0332009575,0.0300965206,0.203651518,0.00182829762,-0.0100186989,-0.00761967711,-3.29975128,18.996727,-47.0014038,2
4.48064454,0.0521345136,0.00359619872,0.00901672708,0.998592884,0.00627631004,0.104376579,0.0177305255,0.061214201,-1.02172702,-9.75308734,0.0691205217,0.0384567911,0.215785608,-0.0302157011,-0.0059768362,-0.000874001067,-3.45771027,18.9496078,-46.9399109,2
4.49060154,0.0519395966,0.00357179511,0.00902336351,0.998603122,0.00622996398,0.103985845,0.017747274,0.0607646672,-1.01791601,-9.75348832,0.0367994067,0.0526022208,0.176981538,-0.0439597443,-0.00381914293,0.00474287197,-3.49298859,18.7406158,-46.9642029,2
4.50055954,0.0517234401,0.00356507762,0.00905446146,0.998614094,0.00621696074,0.103553044,0.0178113787,0.060640575,-1.01369452,-9.75392905,0.0586209651,0.0787571642,0.0490326187,-0.0397868976,0.00179229071,0.0080643855,-3.3651123,18.8958511,-47.0430298,2
4.51051754,0.0515623893,0.00358128458,0.00910103302,0.998621932,0.00624745601,0.103231105,0.0179039279,0.0609400603,-1.01055425,-9.75425287,0.0550294251,0.0738213153,-0.0657142889,-0.0233916789,0.00561073096,0.0109643014,-3.31544495,18.8416824,-47.112793,2
4.52047454,0.0515042678,0.00360041978,0.0091616175,0.998624303,0.0062806103,0.103115436,0.0180238616,0.0612641868,-1.0094259,-9.75436802,0.0547053123,0.0825689776,-0.157776487,-0.000886197435,0.00342237949,0.0130842207,-3.33771515,18.9604187,-46.9468994,2
4.53043254,0.0515382343,0.00361120606,0.00923372918,0.998621834,0.00629419689,0.103184104,0.0181673988,0.0613962796,-1.01009576,-9.7542973,0.0714822596,0.103140641,-0.202588273,0.0138978083,0.0023187655,0.0134727759,-3.43128204,18.9835815,-46.9019165,2
4.54039054,0.0516239772,0.00358913519,0.00929595551,0.998616923,0.00624190387,0.1033558,0.0182942677,0.0608851152,-1.01177057,-9.7541272,0.0493981595,0.073990169,-0.186597507,0.022015404,-0.00855349284,0.0117490487,-3.3190918,19.0656586,-46.911499,2
4.55034754,0.0517380688,0.00354087915,0.00934293666,0.99861073,0.00613808727,0.103583681,0.0183931357,0.0598710565,-1.01399336,-9.75390274,0.0174919226,0.00139415777,-0.140583944,0.0244564582,-0.00896814652,0.0095623266,-3.44130707,18.7776871,-47.0186462,2
4.56030554,0.0518591005,0.00350117127,0.00940116419,0.998603991,0.00605011222,0.103825675,0.018513694,0.0590114714,-1.01635373,-9.75366251,0.0225413652,-0.0161473441,-0.0918932708,0.0230106283,-0.00839024037,0.0144638745,-3.337883,18.9051895,-47.0264893,2
4.57026354,0.051951903,0.00345710959,0.00947062917,0.998598653,0.00595270058,0.104011119,0.0186574147,0.0580602259,-1.01816253,-9.75347955,0.0339672429,-0.0185283941,0.00399111546,0.0162126422,-0.00733589567,0.0138926273,-3.3156662,18.9674377,-47.092041,2
4.58022054,0.0520226407,0.00343099913,0.00950347098,0.99859485,0.00589554656,0.104152496,0.0187258182,0.0575019299,-1.01954142,-9.75333868,-0.00871972859,-0.0045799482,0.0191132813,0.0141985258,-0.00597430207,-0.000426682644,-3.24136353,19.0077286,-47.1304321,2
4.59017854,0.0520932141,0.00336742522,0.00945881963,0.998591844,0.00577127631,0.104292381,0.0186425288,0.0562890561,-1.02090584,-9.75320307,-0.0630223784,0.00276997617,0.0333428822,0.0143010579,-0.0231602136,-0.0130231678,-3.24136353,19.0077286,-47.1304321,2
4.60013654,0.0521497824,0.00321076646,0.00937151819,0.998590108,0.00546481678,0.104402251,0.0184834174,0.0532994778,-1.02197741,-9.75310721,-0.0476128972,-0.0166588008,0.0624269378,0.011673471,-0.0433561355,-0.0180768147,-3.2877655,19.0004196,-46.920166,2
4.61009354,0.0521620534,0.00301329124,0.0092640989,0.998591085,0.00507931188,0.104422623,0.0182883665,0.0495394951,-1.02217608,-9.75310663,-0.0374184793,-0.0285807823,0.0782873548,-0.0038844496,-0.0363677368,-0.0200238507,-3.28382111,18.9815216,-46.9171753,2
4.62005154,0.0521108867,0.00288967221,0.0091644084,0.998595021,0.0048424366,0.104317404,0.0181012824,0.0472297431,-1.02114988,-9.75322528,-0.043638089,-0.0650710957,0.0854395646,-0.0144271804,-0.020800449,-0.0167384576,-3.3163147,18.9858093,-47.0255432,2
4.63000954,0.0520344744,0.00280430843,0.00907318698,0.99860012,0.00468192146,0.104162408,0.0179272505,0.0456649461,-1.01963816,-9.75339129,-0.0142406885,-0.0698749157,0.0345785614,-0.015592047,-0.0138019286,-0.0177089125,-3.33525085,18.9997635,-47.0036316,2
4.63996654,0.0519911917,0.00277884199,0.00898535566,0.998603248,0.00464072968,0.104074864,0.0177536509,0.0452635987,-1.01878424,-9.75348189,-0.0506501963,-0.0418486986,-0.0652881725,-0.00383903482,0.00160444994,-0.0172802247,-3.32513428,19.0761108,-47.0458374,2
4.64992454,0.052016276,0.00280059274,0.0089088825,0.998602566,0.00469197386,0.104125127,0.0175977279,0.0457631686,-1.01927451,-9.7534287,-0.0900555248,-0.0317816242,-0.16515023,0.013122105,0.00482474407,-0.0159161538,-3.35455322,18.9450455,-46.9334717,2
