Time (s),Quaternion X,Quaternion Y,Quaternion Z,Quaternion W,Roll (rad),Pitch (rad),Yaw (rad),Gravity X (m/s^2),Gravity Y (m/s^2),Gravity Z (m/s^2),User Acceleration X (m/s^2),User Acceleration Y (m/s^2),User Acceleration Z (m/s^2),Rotation Rate X (rad/s),Rotation Rate Y (rad/s),Rotation Rate Z (rad/s),Magnetic Field X (µT),Magnetic Field Y (µT),Magnetic Field Z (µT),Magnetic Accuracy
0.0157344167,0.042036603,0.0265921575,9.5938128E-18,0.998762205,0.0533320227,0.0840681301,-0.00224361346,0.520914364,-0.823455953,-9.75812241,-0.388934509,-0.180461927,-0.547569,0.377051115,0.372855693,-0.198694065,25.4892426,2.71205902,-43.8254089,2
0.0256924167,0.0435493434,0.0280168848,-0.000875082511,0.998658046,0.056277439,0.0870426406,-0.0042039781,0.549513595,-0.852519258,-9.75405706,0.0318279841,0.341058732,0.561519784,0.239152104,0.180231914,-0.159903526,25.5485687,2.68099976,-43.9252625,2
0.0356504167,0.0444063277,0.028509619,-0.00157802753,0.998605465,0.0573366409,0.0887151497,-0.00570613965,0.55976231,-0.868857668,-9.75203227,0.169720497,0.589335501,1.0295073,0.119993597,0.0167123321,-0.119644195,25.6103897,2.68718719,-43.8581543,2
0.0456074167,0.0448090484,0.0284004937,-0.00207608426,0.998589661,0.0571667131,0.0894931923,-0.00671844726,0.558066392,-0.876457402,-9.75144951,0.187128399,0.548452505,0.944079424,0.0544287041,-0.0592985488,-0.0738593936,25.6088867,2.62300873,-43.8610535,2
0.0555654167,0.0450059382,0.0280636325,-0.00238797683,0.998589655,0.0565211257,0.0898718307,-0.00732490489,0.551752058,-0.880155672,-9.75147581,0.0803167052,0.408648386,0.611311697,0.0317348167,-0.0765600875,-0.0465318039,25.5228119,2.68813324,-43.8436279,2
0.0655234167,0.045157153,0.0277426599,-0.00261776146,0.998591195,0.0558996277,0.0901639389,-0.00776532675,0.545677049,-0.88300865,-9.75155998,0.0331206908,0.215326539,0.230568167,0.035884019,-0.0531602241,-0.0406201184,25.511055,2.65174103,-44.1167908,2
0.0754814167,0.0453842213,0.0275664225,-0.00284203374,0.998585226,0.0555692354,0.0906072615,-0.00821196469,0.542433391,-0.887338423,-9.7513478,0.00643682811,-0.0212603032,-0.091364863,0.0609306768,-0.018918734,-0.0437957421,25.511055,2.65174103,-44.1167908,2
0.0854394167,0.0457447037,0.0275827802,-0.0030866433,0.99856753,0.0556292694,0.0913149259,-0.00872443471,0.542983755,-0.894249518,-9.75068554,0.0123209177,-0.152165442,-0.267851311,0.0853531957,0.023616476,-0.0519428849,25.3206711,2.5500412,-43.934845,2
0.0953974167,0.0461577308,0.0278371984,-0.00339631168,0.998540433,0.0561742732,0.0921218759,-0.00939247657,0.548257129,-0.902129749,-9.74966438,0.0170732268,-0.139347169,-0.192557293,0.0803448558,0.0725126415,-0.071166113,25.4731369,2.383461,-43.9389343,2
0.105354417,0.0464593721,0.0282877123,-0.00378163939,0.998512395,0.0571188082,0.0926992762,-0.0102245629,0.557435949,-0.907767975,-9.748621,-0.0167957981,-0.0270172593,0.124977794,0.0416334122,0.0998976678,-0.0894287378,25.5814972,2.38578796,-43.8805847,2
0.115312417,0.0465500138,0.0288877671,-0.0042325177,0.998489228,0.0583666896,0.0928481854,-0.0111901303,0.569592762,-0.909221973,-9.74778222,0.0163876192,0.0628724896,0.353234177,0.000997413648,0.134521246,-0.101318546,25.4695206,2.57956696,-43.8960571,2
0.125270417,0.0464407879,0.0296255362,-0.0047042715,0.998470537,0.0598895795,0.0925930343,-0.0121983745,0.584450761,-0.906730521,-9.74713515,0.0931078342,0.079684289,0.464516039,-0.0409678817,0.151528195,-0.10192015,25.4695206,2.57956696,-43.8960571,2
0.135228417,0.046091848,0.0303710905,-0.00516556462,0.998462123,0.0614223505,0.0918572849,-0.013170867,0.599430961,-0.899545944,-9.74689082,0.145015643,0.0543935612,0.67271689,-0.0964144021,0.133039713,-0.0989660919,25.6725616,2.52363586,-43.8520508,2
0.145186417,0.0454393297,0.0309151541,-0.00558936218,0.998473032,0.0625404807,0.0905178574,-0.0140290751,0.610403642,-0.88646522,-9.74740871,0.205420062,0.0270974119,0.881380684,-0.16080457,0.0718895346,-0.0854604021,25.4953308,2.54662323,-43.434082,2
0.155144417,0.0445369554,0.0310446828,-0.00592320796,0.998507744,0.0628123216,0.088689445,-0.0146521192,0.61315411,-0.868606615,-9.74884371,0.317291999,-0.0124587918,0.876530906,-0.188869342,-0.0266230516,-0.0598880202,25.5942078,2.80311584,-43.4121704,2
0.165102417,0.0436612889,0.0307447207,-0.0061186026,0.998554559,0.0622097243,0.0869295714,-0.014961275,0.607373444,-0.851414585,-9.75072178,0.420786056,-0.00780365949,0.538881251,-0.153206155,-0.0934982225,-0.0228434503,25.6568756,2.84978485,-43.6021118,2
0.175059417,0.0430821501,0.0302171632,-0.00614268396,0.998595591,0.0611414721,0.0857772102,-0.0149271887,0.59701641,-0.840155889,-9.75233798,0.419471357,0.0104161801,0.121063251,-0.0747943968,-0.11455366,0.0146748358,25.7024078,2.91158295,-43.7716675,2
0.185017542,0.0429217441,0.0296914961,-0.00601176824,0.998619036,0.060072344,0.0854719752,-0.0146096043,0.586604943,-0.837173585,-9.75322587,0.340399537,0.0024958354,-0.183159934,0.0102208983,-0.0886054188,0.0444388576,25.5779114,2.93864441,-43.815918,2
0.194975542,0.0431378738,0.0293668726,-0.00578316403,0.99862079,0.0594056442,0.0859227734,-0.014136645,0.580079889,-0.841578177,-9.75323756,0.185166306,-0.0450238215,-0.300614347,0.0686062425,-0.037233755,0.0533520691,25.5806046,2.84361267,-43.7864075,2
0.204933542,0.0434963341,0.0292913761,-0.00556987854,0.998608612,0.0592425804,0.0866537334,-0.0137243164,0.578452909,-0.848719719,-9.752715,-0.0883902311,-0.114047746,-0.0817675981,0.0665827766,0.0109526822,0.0346646681,25.6030731,2.90720367,-43.7483826,2
0.214891542,0.0437041206,0.0293815366,-0.00549871167,0.998597301,0.0594212209,0.0870724959,-0.0136021341,0.58017396,-0.852810934,-9.75225615,-0.295863024,-0.204228222,0.255954537,0.0124705993,0.0214439705,-0.00874723587,25.483017,2.9422226,-43.8609924,2
0.224849542,0.0435813142,0.0294228335,-0.00567575476,0.998600511,0.0595171747,0.086815665,-0.0139531951,0.581122712,-0.850301801,-9.75241864,-0.365645074,-0.21870851,0.538034279,-0.0582504421,-0.012839701,-0.0649058446,25.4089661,2.84210968,-43.9054565,2
0.234806542,0.0431671266,0.0292640759,-0.00610806474,0.998620612,0.0592279525,0.0859635065,-0.0147808868,0.578344772,-0.841976163,-9.75330595,-0.335184177,-0.155208097,0.555680995,-0.100294836,-0.0575821251,-0.105496764,25.4477844,2.92594147,-43.6324158,2
0.244764542,0.0426383755,0.0288885453,-0.00666987685,0.998650593,0.0585118145,0.0848781899,-0.0158429691,0.571413,-0.831371621,-9.75462404,-0.145095978,-0.0398177773,0.365762234,-0.0985379517,-0.10016235,-0.115319297,25.5031052,3.04598236,-43.7165222,2
0.254722542,0.0422028739,0.028361835,-0.00720469554,0.998680479,0.0574911272,0.08398439,-0.0168444434,0.561498778,-0.822637695,-9.75594039,0.0346569604,0.0873192409,0.0645113429,-0.0658106804,-0.118093714,-0.0914724916,25.54216,3.16105652,-43.8200378,2
0.264680542,0.0419686848,0.0277835607,-0.00758007784,0.998703893,0.0563574526,0.0835043866,-0.0175345795,0.550460521,-0.817946907,-9.75696389,0.149244367,0.20308687,-0.117322311,-0.0251793675,-0.121088177,-0.0513493083,25.3685532,3.21311951,-43.8193665,2
0.274638542,0.0418724937,0.0271770447,-0.00777193164,0.998723132,0.0551547098,0.0833119627,-0.0178628599,0.538733696,-0.816066427,-9.75777579,0.18371618,0.2671965,-0.0868821646,-0.0124671431,-0.125491813,-0.019094767,25.3416748,3.08883667,-43.8936462,2
0.284596542,0.0417828128,0.0265703987,-0.00786268124,0.998742471,0.0539434096,0.0831384526,-0.0179890606,0.526921313,-0.814370802,-9.75856255,0.135972724,0.242157409,-0.0156160868,-0.0240692049,-0.119510889,-0.0109012853,25.226532,3.10839081,-43.9855347,2
0.294553542,0.0415766021,0.0260454513,-0.0079485539,0.998764199,0.0528929577,0.082730737,-0.018106138,0.516687649,-0.810386189,-9.75944109,0.0748293233,0.151382986,0.00157294841,-0.0585895926,-0.0913761556,-0.019658979,25.3034821,3.19667053,-43.8581543,2
0.304511542,0.0411798541,0.0256923678,-0.00807261263,0.998788725,0.0521860381,0.0819367905,-0.0183041128,0.509821782,-0.802626661,-9.76044354,0.067329944,0.0155335962,0.0173895262,-0.09646561,-0.0516095683,-0.0262809284,25.0980835,3.14642334,-43.8953857,2
0.314469542,0.0406221701,0.0255700445,-0.00817486465,0.998813941,0.0519363843,0.080817865,-0.0184690884,0.507431343,-0.791690038,-9.7614612,0.0540084344,-0.0145565678,0.0158633396,-0.124621771,-0.000946820248,-0.0178378411,25.3368301,3.282341,-43.8500671,2
0.324427542,0.0399726936,0.0256349705,-0.00820669642,0.998838241,0.0520543719,0.079515519,-0.0185032391,0.508636262,-0.77895937,-9.76242274,0.0028245559,0.028826866,-0.00337619843,-0.131754249,0.0161003396,-0.00211240794,25.1607513,3.21858978,-43.8465881,2
0.334385542,0.0394205565,0.0257246832,-0.00816039234,0.998858262,0.0522180997,0.0784115761,-0.018387845,0.510279207,-0.768167123,-9.76319197,0.0475692682,0.135200936,-0.16421558,-0.0831493586,0.0236166473,0.0133179035,25.1503677,3.18152618,-43.9460754,2
0.344343542,0.0392390196,0.0258878951,-0.00803032283,0.998862266,0.0525311026,0.0780522025,-0.0181301922,0.513349555,-0.764653708,-9.76330712,0.00649093292,0.11986615,-0.434046666,0.0154158352,0.0438572057,0.0320092998,25.195961,3.1869278,-43.8851013,2
0.354301542,0.0396003984,0.0261194542,-0.00785796939,0.99884334,0.0529899124,0.0787801604,-0.0178226609,0.517799374,-0.771770554,-9.76251217,0.0105704573,0.0149044314,-0.550960396,0.126464754,0.0528154448,0.0351533592,25.3157349,3.25218964,-43.8779297,2
0.364258542,0.0404574649,0.0263445078,-0.00770983835,0.998804141,0.0534482906,0.0804988547,-0.0175907691,0.522202613,-0.788571759,-9.76093454,0.0522556359,-0.0678034432,-0.440010543,0.208638191,0.0421758518,0.0308464952,25.2213135,3.21016693,-43.7581482,2
0.374216542,0.0415762045,0.0264744878,-0.00759744879,0.998755605,0.0537243802,0.0827410337,-0.017437944,0.524801215,-0.810486873,-9.75899978,0.00835705559,-0.0994586646,-0.13848025,0.228678584,0.0172109716,0.0243697744,25.2408447,3.2302475,-43.8009033,2
0.384174542,0.0425862482,0.0264965,-0.0075209442,0.998713098,0.0537843257,0.0847658043,-0.0173424377,0.525296926,-0.830273451,-9.75730992,-0.0720451359,-0.164666173,0.317571327,0.166642919,-0.00313850702,0.0152846668,25.1506348,3.04238129,-44.056488,2
0.394132542,0.0431085959,0.0263800338,-0.0075023257,0.998693951,0.0535605909,0.0858140491,-0.0173240789,0.523067012,-0.840515882,-9.75655238,-0.101239082,-0.215775233,0.745675159,0.0389514752,-0.0464293547,-0.00112260552,25.2923279,2.83514404,-43.7887878,2
0.404090542,0.0429499746,0.0260031479,-0.007583887,0.998710022,0.0528080126,0.0854988591,-0.0174464873,0.51573824,-0.837436255,-9.75720763,-0.0903190438,-0.250428321,0.921556042,-0.0996143967,-0.105529696,-0.026948344,25.187851,2.83891296,-44.0727844,2
0.414048542,0.0421963872,0.025378277,-0.00777719899,0.998756666,0.0515542809,0.0839918226,-0.0177402678,0.503569371,-0.822710322,-9.75909564,-0.0347552697,-0.328600671,0.713203215,-0.188748553,-0.14690803,-0.0487249158,25.2898941,2.9681778,-44.1384277,2
0.424005542,0.0412277522,0.0247031939,-0.00807223334,0.998811722,0.0502031913,0.0820507387,-0.0182245146,0.49046271,-0.803740322,-9.76134371,-0.013867453,-0.404133612,0.0791921947,-0.18482013,-0.124240793,-0.0682099313,25.2435837,3.13839722,-44.0176697,2
0.433963542,0.0404425788,0.0243027148,-0.00847238299,0.998850326,0.0494147752,0.0804671711,-0.0189534735,0.482828854,-0.788262109,-9.76298621,-0.0494788281,-0.438166961,-0.608695377,-0.120904468,-0.0403634235,-0.091734767,25.1298904,3.29524994,-44.1455688,2
0.443921542,0.0400064591,0.0244102901,-0.00896923524,0.998860954,0.0496600872,0.0795678279,-0.0199355657,0.485258784,-0.779470754,-9.76357191,-0.221298563,-0.394136169,-0.910826558,-0.0502934195,0.0729966909,-0.113990001,25.0579453,3.40458679,-44.1500244,2
0.453879542,0.0398704252,0.0250601312,-0.00956439982,0.998844794,0.0510071845,0.0792523,-0.0211730535,0.49842335,-0.776386232,-9.76315456,-0.311676132,-0.321803266,-0.843158797,-0.00473317644,0.17754434,-0.138602003,25.2585068,3.38285065,-44.1065063,2
0.463837542,0.0398818443,0.0261920552,-0.0102716255,0.998808336,0.0533334299,0.079213382,-0.0226810055,0.521135094,-0.776005781,-9.76199837,-0.334537513,-0.277591783,-0.554167668,0.00918370485,0.262474686,-0.160760298,25.3553467,3.45218658,-43.8277588,2
0.473795542,0.0398827507,0.0276297368,-0.0110529714,0.998761154,0.0562784128,0.079138483,-0.0243611045,0.549884949,-0.775273594,-9.76047978,-0.285775126,-0.253932968,-0.141938281,-0.00656898506,0.291867644,-0.175538495,25.3592072,3.55885315,-43.7344666,2
0.483753542,0.0398166048,0.0290049831,-0.0118945222,0.998715208,0.0591008957,0.0789228037,-0.0261526198,0.577441393,-0.773165078,-9.75905531,-0.223399334,-0.189452824,0.146784552,-0.0137981353,0.241339758,-0.184174329,25.3592072,3.55885315,-43.7344666,2
0.493710542,0.0397883844,0.0300630397,-0.0127500472,0.99867446,0.0612893532,0.0787861586,-0.0279489381,0.598803732,-0.771829226,-9.7578734,-0.133730571,-0.199916569,0.142460844,0.0116490442,0.172176808,-0.174801156,25.3585968,3.45118713,-43.701355,2
0.503668542,0.0399464731,0.030809177,-0.0135512631,0.998634864,0.062854325,0.0790311196,-0.0296237482,0.614061872,-0.774224012,-9.75673534,-0.00518697418,-0.236427633,0.105858083,0.0578208007,0.116548426,-0.155859962,25.4687195,3.64594269,-43.7039185,2
0.513626542,0.0403217825,0.0312636421,-0.0142597908,0.998595759,0.0638354034,0.0797231195,-0.0311045385,0.62359937,-0.78098883,-9.75559143,0.0158015994,-0.175344292,0.147660166,0.0956101492,0.0562988333,-0.129386872,25.5504608,3.57907867,-43.809845,2
0.523584542,0.0408273087,0.0313750377,-0.0148220298,0.998563572,0.0641226758,0.0806947903,-0.0322740004,0.62635298,-0.790487018,-9.75464976,0.0363914561,-0.0145625592,0.283487271,0.108279333,-0.0200505331,-0.0931697488,25.7342453,3.5223465,-43.7139893,2
0.533542542,0.0413127855,0.0310531643,-0.0152467469,0.998547287,0.0635301091,0.0816493108,-0.0331313974,0.620524346,-0.799816865,-9.75426223,0.0977355671,0.108641577,0.430343135,0.0906206146,-0.110348321,-0.0695959702,25.559166,3.51068115,-43.5172424,2
0.543500542,0.0416616887,0.0303735884,-0.0156089443,0.998547979,0.062210351,0.0823472262,-0.0338244351,0.607615728,-0.806638089,-9.75451299,0.0385189696,0.091969624,0.428199694,0.0551454425,-0.155874521,-0.0627556369,25.5158539,3.51275635,-43.7127075,2
0.553458542,0.0418115798,0.0297016601,-0.0159775937,0.998556131,0.0608990233,0.0826473528,-0.0345174457,0.594809073,-0.809571293,-9.75505951,-0.118662766,-0.0111900871,0.279707168,0.0129263829,-0.113262571,-0.0732055753,25.6533661,3.46901703,-43.7265625,2
0.563415542,0.0417300393,0.0293326807,-0.0164136733,0.998563337,0.0601917604,0.082470715,-0.0353557998,0.587918145,-0.80784498,-9.75562007,-0.248390897,-0.056909928,0.170732999,-0.0397895575,-0.0436512679,-0.0983404964,25.3733292,3.49363708,-43.7635803,2
0.573373542,0.0413612487,0.0293461689,-0.0169917911,0.998568751,0.0602512255,0.0816976645,-0.0364923199,0.588535692,-0.800289451,-9.75620576,-0.321433117,-0.0349867769,0.0792915634,-0.103626095,0.0401128344,-0.136712238,25.4129562,3.60051727,-43.8156433,2
0.583331542,0.0406360802,0.0298415841,-0.0176959368,0.998571523,0.0612711799,0.0801858172,-0.0378974193,0.598559658,-0.78551186,-9.75679671,-0.305869016,-0.0065192457,0.0683604195,-0.183423713,0.141960636,-0.159228995,25.459671,3.69113922,-43.8970642,2
0.593289542,0.039522486,0.0306877754,-0.0184095643,0.998577725,0.0629758271,0.0778813589,-0.0393217707,0.615302959,-0.762983364,-9.75754315,-0.0836410638,0.072855539,0.1496113,-0.258053601,0.166584373,-0.151138306,25.4548035,3.82949066,-43.7632446,2
0.603247542,0.0381392832,0.0315286957,-0.0189912768,0.998594473,0.064644218,0.0750442316,-0.0404590097,0.631718817,-0.735241955,-9.75862334,0.199816762,0.156294943,0.00389817648,-0.291926861,0.151566282,-0.107859269,25.5075912,3.77063751,-43.6071777,2
0.613205542,0.0367522143,0.0323000953,-0.0192601407,0.99861657,0.0661470609,0.0722212986,-0.0409593873,0.6465184,-0.707633452,-9.75969536,0.439999729,0.304211276,-0.279641117,-0.260855764,0.142972514,-0.0255488679,25.4996796,4.00862122,-43.4054871,2
0.623162542,0.0356513695,0.0330005239,-0.0190629467,0.998637449,0.0674867455,0.0700045748,-0.0405373357,0.659696885,-0.685949808,-9.76036171,0.679110245,0.49561158,-0.585282937,-0.185750619,0.131953686,0.0815754533,25.6553726,4.15756989,-43.4990234,2
0.633120542,0.0349737352,0.0335109181,-0.0183429734,0.998657866,0.0684295118,0.068678188,-0.0390827732,0.668959949,-0.672973642,-9.7606341,0.814995583,0.577356017,-0.727165689,-0.100631863,0.0713504106,0.188826635,25.7666321,4.2576828,-43.6150818,2
0.643078542,0.0347326176,0.0336361684,-0.0171945953,0.998682498,0.0685915625,0.0682700137,-0.0367743615,0.670560443,-0.668980188,-9.76079893,0.785113655,0.516200998,-0.752439831,-0.0152767543,-0.00286097615,0.259917855,25.7708054,4.2734375,-43.8067932,2
0.653036542,0.034892916,0.033487962,-0.0158683984,0.998703871,0.0682100987,0.068686576,-0.0341197054,0.666817896,-0.673055694,-9.76077555,0.491825486,0.272476706,-0.789124425,0.0592700355,-0.0288756583,0.265879899,25.8485413,4.20843506,-43.740387,2
0.662994542,0.0353372398,0.0333686523,-0.0146900841,0.998710245,0.0679061818,0.0696592725,-0.0317830057,0.663806658,-0.682571783,-9.76031963,0.0167446524,-0.0216219762,-0.751722038,0.0962365791,0.00398002751,0.206956118,25.9456177,4.12807465,-43.5542297,2
0.672952542,0.0358420307,0.0334448444,-0.0139145507,0.998700765,0.0680225753,0.0707191189,-0.0302706814,0.664893138,-0.69293974,-9.75951532,-0.410808998,-0.216107972,-0.522234068,0.0917240083,0.0392119475,0.109354936,25.9204483,4.09577179,-43.5762634,2
0.682910542,0.03626859,0.0336905338,-0.0135753347,0.998681793,0.0685058615,0.0715879709,-0.0296389386,0.66956829,-0.701438689,-9.75858827,-0.543424229,-0.38059002,-0.336114115,0.0743056014,0.0665841848,0.0337832049,25.9449463,4.1645813,-43.6557007,2
0.692867542,0.036619821,0.0340224278,-0.0135263289,0.998658408,0.0691799068,0.0722839176,-0.02958973,0.67611194,-0.708245958,-9.75764544,-0.362771309,-0.455784158,-0.157342187,0.0653486624,0.0623170733,-0.00857308228,26.2502365,3.92311859,-43.8779297,2
0.702825542,0.0369478594,0.0341985447,-0.0136228953,0.998638958,0.0695514565,0.0729280046,-0.0298195036,0.679705507,-0.714545642,-9.75693641,-0.116769353,-0.357158072,0.0153787709,0.0711916387,0.00523860333,-0.0259179845,26.2580719,3.84791565,-44.0748901,2
0.712783542,0.0373200243,0.0340747928,-0.0137503255,0.998627666,0.0693257785,0.0736671505,-0.0300924008,0.677466788,-0.721774717,-9.75655998,0.118155839,-0.126520055,0.129475106,0.0808729008,-0.0533468463,-0.014449372,26.3759842,3.7375412,-44.0125427,2
0.722741542,0.0377166815,0.0336704522,-0.0137541293,0.998626391,0.0685293507,0.0744723514,-0.0300983059,0.669656188,-0.729649396,-9.7565138,0.26542876,0.0869566912,0.232379015,0.0782909617,-0.104189247,0.0271063261,26.3733673,3.76992035,-43.9008179,2
0.732699542,0.0380927702,0.0330803315,-0.013519481,0.998635125,0.0673417078,0.0752581196,-0.0296104286,0.658029682,-0.737333593,-9.75672715,0.353519935,0.190259391,0.193537536,0.0705378279,-0.120931618,0.0819494203,26.1535187,3.85975647,-43.7795715,2
0.742657542,0.0384442136,0.0324837715,-0.0130183036,0.998647846,0.0661196022,0.0760118708,-0.0285854502,0.646068538,-0.744704195,-9.75696622,0.363984776,0.202268685,0.0611976883,0.0649675578,-0.103393637,0.131048784,25.8691101,3.73795319,-43.7797546,2
0.752615542,0.0387999713,0.0319897875,-0.0122984603,0.998659133,0.0650857275,0.0767844706,-0.0271295999,0.635943084,-0.752258702,-9.75705215,0.273254485,0.152811265,-0.0118891752,0.0712613761,-0.0843289047,0.168670431,25.9213867,3.68016052,-43.8269043,2
0.762572542,0.0392475443,0.0315529119,-0.0114335569,0.998665833,0.0641567827,0.0777471407,-0.0253927805,0.626832287,-0.761671112,-9.75691128,0.203506264,0.0921932767,-0.123958973,0.100197151,-0.0763271749,0.189505145,25.6982498,3.62983704,-43.8486023,2
0.772530542,0.0398533369,0.0311469793,-0.0105531182,0.998664288,0.0632915449,0.0790250388,-0.0236366271,0.618328005,-0.774164537,-9.75647113,0.0501026591,-0.0201109871,-0.237375508,0.134442955,-0.0671124235,0.172790408,25.707489,3.61138916,-43.9017639,2
0.782488542,0.0405965578,0.0308845049,-0.00985740059,0.998649632,0.0627304081,0.0805617083,-0.0222698515,0.61277786,-0.789186165,-9.75561773,-0.212198543,-0.187198323,-0.289853884,0.152160436,-0.0154284555,0.115822457,25.7558823,3.45911407,-43.9647522,2
0.792446542,0.0413380493,0.0309625964,-0.00948725474,0.998620388,0.0628770299,0.0820666254,-0.0215825061,0.614132892,-0.803895585,-9.7543312,-0.443396897,-0.287261018,-0.208690097,0.133963749,0.0537750237,0.0408308916,25.8609543,3.26752472,-43.7717285,2
0.802404542,0.0418787729,0.0313159612,-0.00943303477,0.998587248,0.0635959297,0.0831441702,-0.0215384282,0.621089725,-0.814426697,-9.75301719,-0.504522543,-0.282565773,0.0367483067,0.0786879659,0.0850940645,-0.0129380636,25.8003845,3.25907898,-43.5491638,2
0.812362542,0.0421283065,0.0317119095,-0.00955961326,0.998563078,0.0644075939,0.0836266743,-0.0218417521,0.628980332,-0.819141962,-9.75211645,-0.339432081,-0.207820109,0.255665198,0.0246634725,0.0685551465,-0.0364602692,25.9362335,3.30958557,-43.5821228,2
0.822320542,0.04216829,0.0319991955,-0.00974222669,0.998550516,0.0650003448,0.0836885035,-0.0222345566,0.634757528,-0.819746211,-9.7516915,-0.119855044,-0.100374683,0.313598916,-0.00445712917,0.0444460846,-0.0407024175,25.9734802,3.23927307,-43.8385925,2
0.832277542,0.042089585,0.0321838979,-0.00992455494,0.998546038,0.0653839487,0.0835150038,-0.022610188,0.638507528,-0.81805066,-9.75158862,0.000893441708,0.0237750625,0.277583016,-0.0244516749,0.0258885678,-0.0339879356,25.9734802,3.23927307,-43.8385925,2
0.842235542,0.041945677,0.0323016705,-0.0100277542,0.998547313,0.0656247654,0.0832176762,-0.0228171386,0.640871773,-0.815145001,-9.75167689,0.0956439286,0.0285009951,0.226795078,-0.0292288531,0.022767609,-0.0103710238,25.9236603,3.19446564,-43.7843933,2
0.852193542,0.0418079793,0.03248672,-0.0100004179,0.998547412,0.0659898158,0.0829397955,-0.0227684187,0.644446489,-0.812429313,-9.75166812,0.144442446,0.0346138519,0.139397365,-0.0279766712,0.0511211827,0.017814165,25.89711,3.31235504,-43.8239136,2
0.862151542,0.0416775356,0.0327316447,-0.00983659965,0.998546468,0.0664638887,0.0826841576,-0.0224515351,0.649083209,-0.809930993,-9.75156816,0.0714212684,0.0936166605,0.168327691,-0.0257790294,0.0441295877,0.0410872623,25.8714676,3.13639832,-43.6640015,2
0.872109542,0.041589391,0.0328721942,-0.0095713986,0.998548051,0.0667214489,0.0825223752,-0.0219256364,0.651603521,-0.808349861,-9.75153134,0.0554336449,0.0743782185,0.175772162,-0.00960760284,0.016389478,0.0611419566,25.8152084,3.18360901,-43.7526245,2
0.882067542,0.0416386389,0.0328703844,-0.00925300628,0.998549137,0.0666928316,0.0826421927,-0.0212907858,0.651317983,-0.809520878,-9.7514536,-0.041395621,0.0637277913,0.107908586,0.0264718384,-0.0138182249,0.0627920479,25.9034805,3.25065613,-43.635437,2
0.892025542,0.0418769912,0.032694175,-0.0089765686,0.998547468,0.0663227326,0.0831411156,-0.0207384438,0.64768211,-0.814396813,-9.75128993,-0.157320194,0.0693519878,0.0471411059,0.063482672,-0.0521679223,0.0532810763,26.181694,3.25106049,-43.6995239,2
0.901982542,0.0422629327,0.0323112953,-0.00876350664,0.998545552,0.0655468607,0.0839351271,-0.0203055371,0.640073608,-0.822156268,-9.75114088,-0.169613493,0.0121686498,0.0526788663,0.0874194279,-0.0940538496,0.0422113836,25.9526138,3.12772369,-43.6545105,2
0.911940542,0.0427039855,0.0317599116,-0.00863127466,0.998545643,0.064440815,0.0848372309,-0.0200233405,0.629240006,-0.83097137,-9.75109879,-0.153093662,-0.0695469259,0.0658048898,0.0844565406,-0.114215702,0.023707388,25.9477844,3.15345764,-43.6077576,2
0.921898542,0.0430277572,0.0312290617,-0.00862248609,0.99854857,0.0633832705,0.0854961856,-0.0199816846,0.618892581,-0.837410098,-9.75121044,-0.210232869,-0.140770041,0.103176297,0.0424132198,-0.0948846117,-0.00952726509,25.843132,3.1647644,-43.694397,2
0.931856542,0.0430678134,0.0308426386,-0.00877112198,0.998557507,0.0626217238,0.0855747339,-0.0202490651,0.611462321,-0.838177575,-9.75161317,-0.316976028,-0.148232705,0.168222477,-0.0230587926,-0.0596822053,-0.0438042171,25.7489471,3.08161926,-43.7202454,2
0.941814542,0.0427901509,0.0306533086,-0.00902993522,0.998573027,0.0622567866,0.0850069285,-0.0207337669,0.607933051,-0.832629585,-9.75230875,-0.312249621,-0.166350327,0.154103936,-0.0810792148,-0.0242991783,-0.0584332272,25.8013,3.12722778,-43.6905212,2
0.951772542,0.0423142446,0.0305708526,-0.00929612539,0.998593367,0.0621013592,0.0840399571,-0.0212297782,0.60646696,-0.823180643,-9.75320249,-0.151120244,-0.110108288,0.049802434,-0.100640669,-0.0152537767,-0.0490212888,25.6402588,3.14889526,-43.9554443,2
0.961730542,0.0418394463,0.0305167219,-0.00944492519,0.998613641,0.0619925652,0.0830819748,-0.0214930533,0.605454422,-0.813818867,-9.75405063,0.053997986,-0.000807443925,-0.0991366661,-0.0836702064,-0.0110779405,-0.0138212228,25.6949005,3.12985992,-43.8855286,2
0.971687542,0.0415051359,0.030454034,-0.00939484489,0.998629885,0.0618537418,0.0824175905,-0.0213660887,0.604133622,-0.807325779,-9.75467256,0.127593712,0.108967886,-0.157920863,-0.0513147637,-0.0174978431,0.0294409767,25.6610641,3.16388702,-43.801178,2
0.981645542,0.0413400359,0.030270825,-0.00917317178,0.998644402,0.0614636332,0.0821048483,-0.020896176,0.600343692,-0.804269168,-9.75515888,0.100558369,0.139729373,-0.0935392844,-0.0198606998,-0.057495594,0.0580907315,25.5801086,3.12971497,-43.7644043,2
0.991603542,0.0413010104,0.0298425183,-0.00889865659,0.998661417,0.0605809336,0.0820523744,-0.0203082588,0.591735109,-0.803756323,-9.75572704,-0.0252076526,0.0542222963,0.0286842427,0.000290312339,-0.110078186,0.0547421947,25.5802917,3.09353638,-43.8056641,2
1.00156154,0.0413023061,0.0291740632,-0.00872325376,0.998682688,0.0592257348,0.0820789399,-0.0199017475,0.578512384,-0.804015924,-9.75649861,-0.183918497,-0.0388918215,0.128964818,-0.00149001065,-0.155196652,0.024620777,25.6444244,3.09814453,-43.9315796,2
1.01151954,0.0412580115,0.0282892578,-0.00869474352,0.998710186,0.0574475578,0.0820095529,-0.0197691002,0.561165893,-0.803337805,-9.7575677,-0.247077074,-0.144615611,0.169238961,-0.0148062771,-0.197935522,0.00140223233,25.5700226,3.15518188,-43.9749451,2
1.02147754,0.0411150138,0.0272653747,-0.00875880925,0.998744038,0.0553956897,0.0817401187,-0.0198050663,0.541155444,-0.800704388,-9.75891444,-0.174094876,-0.14979294,0.162804544,-0.0399505123,-0.20801425,-0.0103809237,25.4885788,3.01302338,-44.1090698,2
1.03143554,0.0408288319,0.0262413076,-0.008857467,0.998782294,0.0533428817,0.0811825099,-0.0199030264,0.521144848,-0.795254233,-9.76044881,-0.0834553685,-0.0831176975,0.141145085,-0.0717550814,-0.20211567,-0.0116500314,25.4211655,3.09599304,-44.100769,2
1.04139254,0.0403910625,0.0253146461,-0.00890895327,0.998823598,0.0514780465,0.08032238,-0.0199074107,0.50297736,-0.786846762,-9.76208313,-0.0156082323,0.0057392743,0.0203764331,-0.100439459,-0.167892441,0.00102102174,25.3826904,3.2909317,-44.2479553,2
1.05135054,0.0398261843,0.0246263126,-0.00887262453,0.998863788,0.0500812752,0.0792076634,-0.0197498321,0.48938507,-0.775949886,-9.76364614,0.0214772339,0.0822307586,-0.0862491274,-0.122780718,-0.108559594,0.0176065899,25.3143921,3.2842865,-44.1739807,2
1.06130854,0.0391766635,0.0242274834,-0.00875241493,0.99890022,0.0492567765,0.0779218884,-0.0194441045,0.481383514,-0.763379597,-9.76503496,0.00793093913,0.122332906,-0.123915718,-0.136832073,-0.0531682372,0.0301793739,25.2559128,3.43364716,-44.1085815,2
1.07126654,0.0384909952,0.0240562746,-0.00857212838,0.998932666,0.0488837085,0.0765621744,-0.0190347655,0.47779075,-0.750085158,-9.76624142,0.0091295378,0.112330421,-0.143059979,-0.13819842,-0.0181712508,0.0395083278,25.195816,3.70735931,-43.9830017,2
1.08122454,0.0378519566,0.0240143634,-0.00836582565,0.998959738,0.0487695441,0.0752944852,-0.0185859537,0.476721769,-0.737689202,-9.76723803,-0.00910473215,0.0263128374,-0.199075296,-0.116854511,0.000768617727,0.0380710177,25.1860809,3.73774719,-44.1040955,2
1.09118254,0.0373914236,0.0240480962,-0.00816215532,0.998977969,0.0488117221,0.074382419,-0.0181572132,0.477166334,-0.728769909,-9.76788568,-0.0891565393,-0.0200158561,-0.294494988,-0.0684363917,0.0148167741,0.039480079,25.2071686,3.7760849,-44.4923401,2
1.10114054,0.0371787927,0.0240951871,-0.00797150537,0.998986341,0.0488873529,0.0739654868,-0.0177680235,0.477919893,-0.724692431,-9.76815222,-0.0996365419,-0.0309766645,-0.276870483,-0.0235978197,-0.00183011347,0.0335289799,25.1918564,3.85517883,-44.4394226,2
1.11109854,0.0370982968,0.0239169131,-0.00784449509,0.998994623,0.0485188691,0.0738137763,-0.017496303,0.474325777,-0.723208695,-9.76843747,-0.130608713,-0.0237814192,-0.0961222867,-0.0122616263,-0.0719357878,0.0169380493,24.9795914,3.71307373,-44.3866272,2
1.12105554,0.0370452568,0.0234041762,-0.00782001704,0.999008962,0.047488125,0.0737177945,-0.0174067136,0.464260091,-0.722270026,-9.76899042,-0.0740056954,-0.0773925248,0.0129179338,-0.00749483425,-0.126116723,-9.49967653E-05,25.0004349,3.64215088,-44.499054,2
1.13101354,0.0370398586,0.0227431545,-0.00788885466,0.99902392,0.0461680503,0.0737153173,-0.0174955189,0.451363967,-0.722245768,-9.76959657,-0.032079913,-0.102256625,-0.0883791252,0.00893420726,-0.134733915,-0.0151330689,24.9783936,3.60839081,-44.5863342,2
1.14097154,0.0371398862,0.0221315145,-0.00798931708,0.999033059,0.0449515303,0.0739216215,-0.0176562409,0.439472016,-0.724263465,-9.76998937,-0.0282683919,-0.013449118,-0.277726808,0.0326398015,-0.108061299,-0.01342039,25,3.56591034,-44.4633484,2
1.15092954,0.0373440137,0.0216802607,-0.00803911606,0.99903501,0.0440549783,0.0743358161,-0.0177318683,0.430699292,-0.728314128,-9.7700788,-0.0102181368,0.104924748,-0.327317061,0.0502679795,-0.0743199214,0.00193402683,25.1319504,3.6370697,-44.5449219,2
1.16088754,0.0376038981,0.0213645182,-0.00798610968,0.999032431,0.0434235463,0.0748636989,-0.0176137875,0.424513297,-0.73347648,-9.76996365,0.0365196125,0.178621122,-0.248124281,0.054683499,-0.0512271151,0.0265738592,24.7975235,3.64300537,-44.4047546,2
1.17084554,0.0378682644,0.02113459,-0.00779957155,0.999028799,0.0429540685,0.0754047286,-0.0172344777,0.419909383,-0.738767206,-9.76976375,0.0920003479,0.16924729,-0.135347797,0.0502346903,-0.0386154465,0.0531388931,24.8810806,3.66704559,-44.491272,2
1.18080354,0.0380817657,0.0209567601,-0.00754971778,0.999026385,0.0425829789,0.0758456391,-0.0167297499,0.416270004,-0.743078713,-9.76959248,0.0589785509,0.0860207986,-0.0463350502,0.0319308341,-0.0287763681,0.0471605547,24.8810806,3.66704559,-44.491272,2
1.19076104,0.0381714027,0.0208254931,-0.00737912727,0.999026963,0.0423086253,0.0760344139,-0.0163818321,0.413583724,-0.744924633,-9.76956618,-0.0719615493,-0.025558585,0.0395306309,0.000616803998,-0.016454773,0.0212502666,24.6575165,3.55657196,-44.4337769,2
1.20071804,0.0380948761,0.0208132905,-0.00734943739,0.999030344,0.0422803998,0.075882746,-0.0163180622,0.413312725,-0.743441555,-9.76969068,-0.148155439,-0.0520310699,0.0879880801,-0.0316090398,0.0127233518,-0.00884265453,24.8227158,3.5118866,-44.4280396,2
1.21067604,0.0378581806,0.0209143082,-0.0074347616,0.999036589,0.0424847156,0.0754038635,-0.0164863441,0.415323882,-0.738758804,-9.76996015,-0.175305677,-0.0197534789,0.0852647926,-0.0609459542,0.0240001883,-0.0277758092,24.7205505,3.54938507,-44.2147522,2
1.22063404,0.0375310515,0.0210281288,-0.00757692794,0.999045527,0.042717069,0.0747413692,-0.0167653969,0.417614769,-0.732280183,-9.77035061,-0.0893103782,-0.00408558881,0.0130810154,-0.0651598796,0.0136383604,-0.0327338129,24.7720184,3.46916962,-44.5262146,2
1.23059204,0.037266254,0.0210269272,-0.0077265856,0.999054366,0.0427204904,0.0742051768,-0.0170535023,0.417664929,-0.72703651,-9.7707399,0.0222691515,0.00952500339,-0.127189041,-0.0339429267,-0.0177199338,-0.028859701,24.7284393,3.59529114,-44.3096619,2
1.24055004,0.0372358116,0.0208785766,-0.00786043423,0.999057569,0.0424324467,0.0741411154,-0.0173093281,0.414852465,-0.726410048,-9.77090649,0.145090937,0.0157818718,-0.299853884,0.0242759045,-0.0408540145,-0.0211285446,24.8468475,3.65843964,-44.2585449,2
1.25050804,0.0374727953,0.0206418263,-0.0079526215,0.999052795,0.0419696266,0.0746155059,-0.0174867359,0.410315735,-0.731049326,-9.77075159,0.205292855,0.0367316478,-0.380813089,0.071088329,-0.0532700233,-0.00873443205,24.7988968,3.68492889,-44.3886719,2
1.26046604,0.0378790742,0.0203648146,-0.00797701975,0.999043019,0.0414245862,0.0754322632,-0.0175323241,0.404965387,-0.739036452,-9.77037399,0.166200835,0.0758433957,-0.315948694,0.0896351188,-0.0570647642,0.00555875292,24.8046036,3.52587891,-44.4021301,2
1.27042404,0.038280498,0.0200832946,-0.00793466709,0.999033741,0.0408653186,0.0762421524,-0.0174431521,0.399476471,-0.74695592,-9.76999814,0.110787247,0.143767616,-0.176712658,0.070639126,-0.0521799214,0.0176888779,24.7900543,3.58223724,-44.3510132,2
1.28038104,0.0385522907,0.0198645467,-0.00784099012,0.999028377,0.0404251853,0.0767936057,-0.0172500829,0.39515963,-0.752348061,-9.76975965,0.0607856369,0.149907872,-0.0430254873,0.0377472229,-0.0329790637,0.0250200275,24.8131104,3.44065857,-44.3484497,2
1.29033904,0.0386756648,0.0197518744,-0.00772479783,0.999026734,0.0401928518,0.0770470936,-0.017013685,0.392882114,-0.75482658,-9.76966029,0.0367269351,0.0940277255,-0.0422270304,0.0115933847,-0.00660256902,0.0236561541,24.7993317,3.37375641,-44.4234924,2
1.30029704,0.0386965604,0.0198061467,-0.00762922756,0.999025559,0.0402946937,0.0770918332,-0.0168272165,0.393875691,-0.755264022,-9.76958664,-0.0293590001,-0.000405146735,-0.145700264,-0.00391926151,0.0314944796,0.0134700956,24.7793121,3.52703094,-44.5248413,2
1.31025504,0.038675783,0.0200471866,-0.00756949796,0.999022103,0.0407729043,0.0770486403,-0.0167252704,0.398548907,-0.754841705,-9.76942998,-0.0685985026,-0.0924056773,-0.236687526,-0.00235091359,0.0667233095,0.00670441799,24.797226,3.65579224,-44.4812927,2
1.32021304,0.0387170478,0.020434254,-0.00752597431,0.999013022,0.0415463624,0.0771265363,-0.0166697257,0.406102574,-0.755603337,-9.76905998,-0.0623855098,-0.12381613,-0.275963306,0.018313352,0.086970523,0.00671879854,24.6656036,3.42367554,-44.6087036,2
1.33017104,0.0388621005,0.0208783199,-0.0074713629,0.998998544,0.0424353094,0.0774116773,-0.0166009887,0.414777427,-0.758391214,-9.76847897,-0.0438263553,-0.0842172563,-0.190351891,0.0370336697,0.0903643519,0.00815816689,24.7289963,3.53595734,-44.4519653,2
1.34012904,0.0390634493,0.0212753329,-0.0074106992,0.9989828,0.0432305853,0.0778105912,-0.0165192294,0.422532827,-0.762291509,-9.76784301,-0.0580161356,-0.0312358999,-0.00977729765,0.0401349217,0.0674667582,0.0119909896,24.7421112,3.60137939,-44.1050415,2
1.35008704,0.0392257939,0.0215176923,-0.00732893975,0.998971817,0.0437133499,0.0781350005,-0.0163816162,0.427237534,-0.765463198,-9.76739059,-0.026358905,-0.048863838,0.205248432,0.0230176076,0.0334676728,0.0196578931,24.8758392,3.58528137,-44.1437073,2
1.36004404,0.0393073631,0.0216221526,-0.00721899416,0.998967133,0.0439157875,0.078301335,-0.0161731526,0.429209199,-0.767089411,-9.76717665,0.0253892928,-0.0783623197,0.312025383,0.00868713856,0.0118800886,0.0241549071,24.9509201,3.42696381,-44.1673279,2
1.37000204,0.0393249034,0.021643124,-0.00709364363,0.99896686,0.043948339,0.0783416044,-0.0159243705,0.429525791,-0.767483086,-9.76713164,-0.000664930182,-0.134681223,0.295071326,-0.00197849423,0.00071643875,0.0237926599,25.0270844,3.46430969,-44.2154846,2
1.37996004,0.0393144614,0.0216219861,-0.00697787571,0.998968646,0.0438966721,0.0783261413,-0.0156902184,0.429021678,-0.767331914,-9.76716555,-0.0389169194,-0.180172662,0.247969383,-0.00165678468,-0.0100698965,0.0211737063,24.9013748,3.48090363,-44.1469421,2
1.38991804,0.0393167552,0.0215099506,-0.00691010179,0.998971409,0.0436667609,0.0783354489,-0.0155456886,0.426775762,-0.767422881,-9.76725673,-0.069591313,-0.155840331,0.200176535,0.00433248281,-0.0352816917,0.00775987003,24.8534393,3.48493958,-44.5106201,2
1.39987604,0.0393780285,0.0212694411,-0.00688723599,0.998974298,0.0431839016,0.0784627849,-0.0154836951,0.422055273,-0.768667766,-9.76736428,-0.0518523523,-0.119430608,0.104366383,0.0221373122,-0.0592562631,0.00823790766,24.8260727,3.37351227,-44.4942627,2
1.40983404,0.0395607376,0.020936574,-0.00684007603,0.99897446,0.042516222,0.0788355531,-0.0153709995,0.415521523,-0.772312114,-9.76735669,0.0241132085,-0.107855395,-0.0615887334,0.0516800992,-0.0690020323,0.0157128256,24.9981689,3.50075531,-44.4544678,2
1.41979204,0.0398743048,0.020599361,-0.00677009763,0.998969513,0.0418403966,0.0794711361,-0.0152176275,0.408899767,-0.778525509,-9.76714333,0.0462972755,-0.0364000047,-0.145300451,0.0712266341,-0.063935101,0.0177858304,25.0215149,3.32273102,-44.4300842,2
1.42975004,0.0401971351,0.0203158452,-0.00668043105,0.998962903,0.041270706,0.0801251632,-0.0150290649,0.403314368,-0.784918936,-9.76686335,0.0626565819,0.0109941261,-0.111013566,0.0585599765,-0.0428877324,0.0251303948,24.7718201,3.22050476,-44.4239197,2
1.43970804,0.0404331657,0.0201705444,-0.00654265455,0.998957226,0.0409725601,0.0806053249,-0.0147512102,0.4003869,-0.789612501,-9.76660557,0.0727666917,-0.0268094618,-0.0698223088,0.0351510569,-0.0128350239,0.0334517099,24.76754,3.18161011,-44.2200012,2
1.44966504,0.040559779,0.0201674269,-0.00638327251,0.998953169,0.0409556852,0.0808652746,-0.0144368301,0.400213699,-0.792153417,-9.76640684,0.0757830073,-0.0154399265,-0.052363809,0.011956471,0.016326271,0.0305798948,24.655899,3.27159119,-44.1713257,2
1.45962304,0.0405673742,0.0203144346,-0.00623367007,0.998950837,0.0412384832,0.0808845242,-0.0141491959,0.402974944,-0.792341633,-9.76627824,0.042196416,0.0155736359,-0.0300467632,-0.010186648,0.0427181982,0.0292832032,24.7969589,3.28018188,-44.2851257,2
1.46958104,0.0404818296,0.020517915,-0.00606458353,0.998951204,0.0416313351,0.0807175009,-0.0138230968,0.406817116,-0.790708991,-9.76625135,0.0340147535,0.00226926011,0.00853285055,-0.0238884296,0.0392477475,0.0348087549,24.6241074,3.29589081,-44.1540833,2
1.47953904,0.0403610131,0.0206782356,-0.0058815561,0.998953898,0.0419359709,0.0804811966,-0.0134639824,0.409800077,-0.788399179,-9.76631331,0.0319296178,-0.0265264071,-0.00577040009,-0.0243022852,0.0268398114,0.0351009034,24.6735077,3.46540833,-44.3211975,2
1.48949704,0.0402895693,0.0207494814,-0.00569335643,0.998956353,0.0420624714,0.0803451889,-0.0130894027,0.411040031,-0.787069684,-9.76636826,-0.0276690012,-0.00391388551,-0.0292085588,-0.00188524718,0.00477965921,0.0385299064,24.8100739,3.324646,-44.2849731,2
1.49945504,0.040361147,0.0207095525,-0.00550133766,0.998955447,0.0419680985,0.0804970204,-0.0127043842,0.410113344,-0.788553858,-9.76628759,-0.0520310333,0.0260014333,-0.0867500627,0.0299544409,-0.0160180312,0.0392534882,24.8849792,3.22447205,-44.415863,2
1.50941304,0.0405706685,0.0205815302,-0.00533857456,0.998950497,0.041701558,0.0809247247,-0.0123767757,0.407496111,-0.792734578,-9.76605846,-0.113009855,-0.00139138129,-0.0820405698,0.0495946519,-0.0329033472,0.0284627378,24.7251663,3.2943573,-44.3908997,2
1.51937104,0.04082553,0.020377137,-0.00525674805,0.99894474,0.041289029,0.0814406592,-0.0122069781,0.403450343,-0.797777468,-9.76581589,-0.20263719,-0.0232832604,-0.0141986212,0.0499858707,-0.0446481556,0.00897345971,24.8195572,3.21769714,-44.4910278,2
1.52932804,0.0410461637,0.0201734684,-0.005282321,0.998939701,0.0408861401,0.0818836329,-0.0122508804,0.399501313,-0.802107094,-9.76562358,-0.220984126,-0.0523228924,0.0333434667,0.0391783416,-0.0372423269,-0.0106481072,24.6988602,3.21843719,-44.4492493,2
1.53928604,0.0412196127,0.0200284928,-0.0053642438,0.99893506,0.0406048711,0.0822291931,-0.0124104472,0.396743246,-0.805484462,-9.76545816,-0.157922142,-0.0800700735,0.0131266081,0.0340184681,-0.0216045119,-0.0175606087,24.6988602,3.21843719,-44.4492493,2
1.54924404,0.041395288,0.0199649818,-0.00546493858,0.998928403,0.0404886121,0.0825774608,-0.0126143951,0.395596524,-0.808888206,-9.76522318,-0.0939276627,-0.0347677273,-0.0432218866,0.0390816033,-0.00391053036,-0.0220327992,24.6232452,3.29056549,-44.4829407,2
1.55920204,0.0415844736,0.0200027285,-0.00557581399,0.998919195,0.0405765701,0.0829510916,-0.0128477098,0.396443167,-0.812539714,-9.76488591,-0.0955224576,0.0196108555,-0.00375613766,0.0374626704,0.0144192083,-0.0207574125,24.7555771,3.27700043,-44.4683533,2
1.56916004,0.0417377385,0.0200617763,-0.0056799683,0.998911035,0.0407061857,0.0832528126,-0.0130678637,0.397698866,-0.815488408,-9.76458897,-0.089146639,0.0692464086,0.0766015936,0.0248516575,0.00585007668,-0.0182563532,24.8130417,3.41448212,-44.5386047,2
1.57911804,0.041832654,0.0200747639,-0.0057708174,0.998906254,0.040741402,0.0834388877,-0.0132550738,0.398036537,-0.817306855,-9.76442297,-0.0731738477,0.0534077651,0.126864046,0.0152115468,0.00320582441,-0.0188137535,24.7072525,3.3806839,-44.4142456,2
1.58907604,0.0418698972,0.0201540539,-0.0058705019,0.998902526,0.0409093962,0.083508289,-0.0134631362,0.399674587,-0.817985047,-9.76429964,-0.0806477272,0.0325380686,0.0993564463,0.0018116436,0.0331472754,-0.0213220455,24.7682419,3.39054871,-44.41745,2
1.59903404,0.041851744,0.0203881732,-0.00596866834,0.998897924,0.0413868533,0.0834647337,-0.0136787852,0.404338049,-0.817559442,-9.76414298,-0.100574225,-0.0316331556,0.130025141,-0.0125784809,0.0590486489,-0.0221444294,24.8126068,3.42531586,-44.3838806,2
1.60899204,0.0417431674,0.0207013569,-0.00606139872,0.998895513,0.0420208439,0.0832392579,-0.0138862125,0.410536063,-0.815355941,-9.76406875,-0.0808849335,-0.0610707009,0.233350491,-0.0325063579,0.068766281,-0.0226956047,24.7762527,3.34352875,-44.4393311,2
1.61894904,0.0415472426,0.0210651147,-0.00616963011,0.998895444,0.0427559502,0.0828374813,-0.014124929,0.417727546,-0.811429415,-9.76409096,-0.0808938109,-0.0862457664,0.353681336,-0.0447758064,0.0731506422,-0.0276565403,25.0226669,3.09392548,-44.3453979,2
1.62890704,0.0413074555,0.0213802349,-0.00629524503,0.99889792,0.0433940443,0.0823477122,-0.014392206,0.423975062,-0.806642838,-9.76421839,-0.0591590951,-0.0920798063,0.434762705,-0.0496773534,0.0450180694,-0.028340973,24.8664703,3.260849,-44.4555054,2
1.63886504,0.0410754415,0.0214727138,-0.00643396884,0.998904572,0.0435867078,0.0818760311,-0.014667504,0.425872785,-0.802032787,-9.76451532,-0.0490858102,-0.0835217483,0.457206008,-0.0414662957,-0.0132068843,-0.0309636537,25.0606384,3.22593689,-44.3594971,2
1.64882304,0.0408979245,0.0212756499,-0.00658732023,0.998915191,0.043200803,0.0815170677,-0.0149508103,0.422117013,-0.798524267,-9.76496599,-0.00627462329,-0.0981034506,0.373111428,-0.0254332051,-0.0658290237,-0.0302782133,24.8700485,3.2440567,-44.1441345,2
1.65878104,0.0407985149,0.0208840114,-0.00673638112,0.998926474,0.0424257307,0.0813176579,-0.0152132286,0.414555053,-0.796575252,-9.76544939,0.0565035757,-0.107833548,0.27169162,-0.014441275,-0.0912877843,-0.0247731917,24.9747543,3.32085419,-44.4090576,2
1.66873904,0.0407166205,0.0204099232,-0.00686937657,0.998938707,0.0414843159,0.0811554646,-0.0154376395,0.405366917,-0.794989883,-9.76596377,0.0873892374,-0.144733465,0.181375973,-0.0186279602,-0.0977581143,-0.0213660579,24.8759537,3.35489655,-44.5609436,2
1.67869704,0.0405867876,0.0199358885,-0.00698842493,0.998952664,0.0405409492,0.0808981292,-0.0156322381,0.396162122,-0.792474612,-9.76654595,0.0846229875,-0.171041188,0.113573772,-0.0331895947,-0.0941884145,-0.0201410037,24.7186737,3.57369995,-44.297699,2
1.68865504,0.0403728071,0.0194954959,-0.00710738485,0.998969198,0.0396634111,0.0804720824,-0.0158261669,0.387604794,-0.788310113,-9.76722634,0.062953519,-0.148420556,0.07714403,-0.0516118146,-0.083015725,-0.020627521,24.813179,3.45392609,-44.3675842,2
1.69861304,0.0400669487,0.0191711834,-0.00720889828,0.998987089,0.0390154228,0.0798611856,-0.0159911006,0.381294369,-0.782338491,-9.76795524,0.0197338609,-0.0762812756,-0.0196907889,-0.0702129304,-0.0460848734,-0.0161928236,24.7603989,3.37056732,-44.2269287,2
1.70857004,0.0396918922,0.0190814718,-0.00724436877,0.999003532,0.0388311774,0.0791107079,-0.0160399118,0.37951735,-0.775002011,-9.76860932,0.0319854762,-0.0162806882,-0.0907131211,-0.0791996196,0.0111215673,0.00277678738,24.7843475,3.47597504,-44.2203979,2
1.71852804,0.0392740822,0.0192911426,-0.00716912221,0.999016506,0.0392376381,0.0782742162,-0.0158887423,0.383513178,-0.766824257,-9.76909856,0.0655487231,0.0122026982,-0.0707709878,-0.0889611691,0.0697790235,0.0218471512,24.8261795,3.62696075,-44.2272339,2
1.72848604,0.03879905,0.0197084504,-0.00701272548,0.999028152,0.040053121,0.0773232947,-0.0155883654,0.391508597,-0.757527071,-9.76950656,0.0333120486,-0.0368981635,0.0372264456,-0.103911385,0.097425811,0.0305409431,24.8630524,3.72270203,-44.3459778,2
1.73844404,0.0382426149,0.0202181651,-0.00684077677,0.999040517,0.0410513979,0.076208974,-0.0152596991,0.401295466,-0.74663151,-9.76994846,0.0218791293,-0.0916374694,0.245664613,-0.123530097,0.104938321,0.0287009664,25.0203323,3.74984741,-44.3551331,2
1.74840204,0.0375559603,0.0206793521,-0.00666898068,0.999058259,0.0419503564,0.0748351946,-0.0149209799,0.410120724,-0.733197736,-9.77059903,0.0106597065,-0.103126028,0.48214405,-0.15488103,0.0763477311,0.0271855555,25.0300827,3.86154938,-44.2453918,2
1.75836004,0.0367193813,0.0209657257,-0.00651628824,0.999084443,0.0424980594,0.0731635433,-0.0145999172,0.415523533,-0.716849316,-9.77158395,0.00645399844,-0.104061774,0.653266925,-0.181732357,0.0406674966,0.0228659082,24.8661804,3.74425507,-44.0545044,2
1.76831804,0.0357477692,0.0211096993,-0.00639232032,0.999117403,0.0427605646,0.0712227564,-0.0143193979,0.418147305,-0.69786631,-9.77284593,0.0196918118,-0.09640936,0.656923109,-0.21030131,0.0173194036,0.0161306504,24.7942505,3.85488129,-44.1051331,2
1.77827604,0.0345954023,0.0211627919,-0.0063123709,0.999157405,0.0428414585,0.068919878,-0.0141123454,0.419005566,-0.675338179,-9.77439199,-0.0562845261,-0.0237679021,0.698272772,-0.254595518,0.00356976897,0.00313682202,24.8974152,3.99385071,-44.04422,2
1.78823404,0.0331732139,0.0211581825,-0.00628947014,0.999205847,0.042806499,0.0660756616,-0.0140037362,0.418744394,-0.647509457,-9.77628584,-0.0488407494,0.049259194,0.777828539,-0.318879843,-0.00726890657,-0.00696160784,24.8705902,4.00454712,-44.0187988,2
1.79819104,0.0314128958,0.0211028156,-0.00629160725,0.999263979,0.0426662121,0.0625547985,-0.0139274443,0.417467543,-0.613052988,-9.77856197,0.0286016424,0.0584968318,0.83427348,-0.387512982,-0.0222228225,-0.00575013552,24.6794586,4.15645599,-44.0473633,2
1.80814904,0.0293158299,0.0209502187,-0.00623592118,0.999331198,0.0423227123,0.0583642886,-0.0137156303,0.414213656,-0.572033251,-9.7811853,0.202292797,0.137486453,0.838842103,-0.45601818,-0.0389239416,0.0160058178,24.8127899,4.37713623,-44.2459106,2
1.81810704,0.0269057563,0.0207926915,-0.0060006238,0.999403694,0.0419559328,0.0535554839,-0.0131321826,0.4107367,-0.524948843,-9.78397172,0.315005166,0.221185348,0.675081866,-0.511983752,-0.0250731092,0.0647038445,24.9410553,4.63829803,-44.245575,2
1.82806504,0.0242521149,0.0207116734,-0.00548988485,0.999476226,0.0417286326,0.0482701579,-0.0119928787,0.40862285,-0.473184754,-9.78670027,0.3106846,0.279704173,0.422828522,-0.553148806,-0.0104852207,0.118034109,24.8290329,4.89472198,-44.331543,2
1.83802304,0.0215050729,0.0206940804,-0.00472275379,0.999543386,0.0416225262,0.0428081139,-0.0103409078,0.407685861,-0.419675976,-9.78918039,0.28094588,0.20898707,0.0757546214,-0.552121103,0.00589401927,0.163024217,24.8033142,4.94161224,-44.2037659,2
1.84798104,0.0188321373,0.020792086,-0.00384497428,0.999599143,0.0417537951,0.0374980737,-0.00847604466,0.409058136,-0.367644322,-9.79121511,0.0904316738,0.131068111,-0.26488077,-0.526808977,0.0383029692,0.163561568,24.8012772,5.20530701,-44.3611755,2
1.85793904,0.0163119178,0.0210502575,-0.00302451905,0.99964087,0.042218883,0.0324905016,-0.00673721248,0.413684371,-0.318566914,-9.79274013,-0.250430293,0.037548371,-0.507563738,-0.49191463,0.0660206154,0.139843181,24.7858429,5.35112762,-44.2958069,2
1.86789704,0.0139869565,0.0214256972,-0.00234194621,0.999669934,0.0429326167,0.0278679311,-0.0052837832,0.42073239,-0.273255672,-9.79380922,-0.364918075,-0.102333873,-0.658826312,-0.449202269,0.0880705714,0.109329343,24.9402084,5.54358673,-44.2251892,2
1.87785404,0.0118892765,0.0219160338,-0.00183808313,0.999687455,0.0438884772,0.0236927706,-0.0041973392,0.430140014,-0.232324965,-9.79445687,-0.405450321,-0.261178993,-0.761428609,-0.395103335,0.109191842,0.0730152801,25.0168152,5.62335968,-44.0661621,2
1.88781204,0.0101254679,0.0224368733,-0.00151520129,0.999695919,0.044915026,0.0201781544,-0.00348456518,0.440228204,-0.197866669,-9.7947655,-0.434542523,-0.390357893,-0.82860654,-0.314019591,0.0953360572,0.0380403213,25.0168152,5.62335968,-44.0661621,2
1.89777004,0.00880649407,0.0228096359,-0.0013821191,0.999700164,0.0456528176,0.0175455561,-0.00316564777,0.447476824,-0.172054292,-9.79492449,-0.370413933,-0.436520984,-0.842663123,-0.217137769,0.0525185466,0.00251002284,24.9290466,5.91094208,-44.2483215,2
1.90772804,0.00793338448,0.0229628171,-0.00140835763,0.999703944,0.0459562911,0.0157980489,-0.00318062934,0.450462415,-0.15491949,-9.79507354,-0.279427182,-0.43106049,-0.750187084,-0.138176382,0.00702029932,-0.0194086749,25.094986,6.11097717,-44.2368469,2
1.91768604,0.00735745996,0.0228360029,-0.00153394359,0.999711051,0.0457021853,0.0146411328,-0.00340340201,0.447981303,-0.143575335,-9.79536054,-0.23385044,-0.32882973,-0.539061284,-0.0964379981,-0.0598013401,-0.0333668366,25.1091461,6.23139954,-44.0089111,2
1.92764404,0.00690691074,0.0223922736,-0.0017259471,0.999723931,0.0448152498,0.0137331438,-0.00376062759,0.439298961,-0.134671898,-9.79588018,-0.192098151,-0.185851,-0.342815659,-0.0831369832,-0.114615738,-0.0427335538,25.1085205,6.28529358,-44.1185608,2
1.93760204,0.00652308081,0.0217603985,-0.00191421452,0.999740082,0.0435518812,0.0129598253,-0.00411168052,0.426927189,-0.127088914,-9.79652842,-0.133039447,-0.121607925,-0.359974299,-0.0665422902,-0.13185811,-0.0344029181,25.0752182,6.26247406,-44.271637,2
1.94756004,0.0062317408,0.0211382107,-0.00205832713,0.999755128,0.0423075809,0.0123737267,-0.00437945117,0.414740127,-0.121341712,-9.79712463,-0.120403436,-0.0600182053,-0.444222608,-0.0482842401,-0.11681769,-0.0228968561,25.0713425,6.24267578,-44.1776123,2
1.95751804,0.00602316416,0.0205902692,-0.00213912633,0.999767603,0.0412113457,0.0119557232,-0.00452563443,0.404001985,-0.117242798,-9.79762323,-0.127621806,-0.00710519236,-0.47873921,-0.0326924957,-0.104517087,-0.00994030945,25.0260086,6.16747284,-44.1748657,2
1.96747604,0.00589242915,0.0201133788,-0.00216373245,0.999778016,0.0402569523,0.0116954689,-0.00456386555,0.394652229,-0.114690757,-9.79803473,-0.134732223,-0.00636520592,-0.500922985,-0.0192329679,-0.0851714239,0.00265480066,24.9406128,6.36629486,-44.1329041,2
1.97743304,0.00586411096,0.0197210197,-0.00212601225,0.999786115,0.0394714604,0.0116421222,-0.00448272635,0.386956085,-0.114167637,-9.79834745,-0.133620133,-0.0410057084,-0.538468579,0.0102855088,-0.0736788213,0.0159602184,24.7733002,6.26248169,-44.2270508,2
1.98739104,0.00600244593,0.0193763782,-0.0020391146,0.999792229,0.0387816608,0.0119236588,-0.00431031294,0.380195833,-0.11692838,-9.79857951,-0.091246132,-0.127279322,-0.619189883,0.045541063,-0.0646426231,0.0198061485,24.7374115,6.43721008,-44.2424927,2
1.99734904,0.00630530822,0.0191050021,-0.00196575456,0.999795777,0.0382393114,0.0125332577,-0.00417197184,0.37487873,-0.122906057,-9.79871161,-0.146831533,-0.191182424,-0.599156564,0.0716933087,-0.0436678305,0.0106086535,24.8132095,6.34901428,-44.2069702,2
2.00730704,0.00667221265,0.018989901,-0.00194150649,0.999795524,0.0380104416,0.013268348,-0.00413600418,0.372632559,-0.130114226,-9.79870401,-0.196958487,-0.221982198,-0.493370377,0.0696307495,0.00393623672,0.00322944019,24.7151718,6.27351379,-44.2749023,2
2.01726504,0.0069227458,0.0192005576,-0.00193729192,0.999789821,0.0384329696,0.0137686224,-0.00414001488,0.37677017,-0.135019798,-9.79847955,-0.218005184,-0.15363029,-0.3008616,0.0219937209,0.0834387913,-0.000476614572,24.9597778,6.04865265,-44.3777771,2
2.02722304,0.00674554418,0.0198244823,-0.00193607168,0.999778938,0.0396802992,0.0134117448,-0.0041391253,0.388993728,-0.131520348,-9.79804934,-0.270181946,-0.0230544475,0.0428746806,-0.101109907,0.163835019,-0.00364573416,24.8266296,6.13176727,-44.2745667,2
2.03718104,0.00584905921,0.0208022174,-0.00195572832,0.999764649,0.0416323542,0.0116142594,-0.004154175,0.408128454,-0.113894419,-9.79749171,-0.293656199,0.0948912927,0.354311451,-0.259997308,0.22756739,-0.0141066313,24.9342041,6.2917099,-44.3576355,2
2.04713904,0.00421346844,0.0221008997,-0.00198923753,0.999744889,0.0442232358,0.00833695578,-0.00416385973,0.433525382,-0.0817566566,-9.7967219,-0.310972696,0.10330533,0.380476404,-0.391149402,0.291052938,-0.0145069864,24.9520645,6.55883789,-44.0421448,2
2.05709704,0.00208658621,0.0236332924,-0.00199721129,0.999716633,0.0472795311,0.00407759982,-0.00409196194,0.463477234,-0.039987485,-9.79561014,-0.256678577,0.124982507,0.215511467,-0.454739302,0.318147928,-0.0125602148,24.9498138,6.49986267,-43.9918518,2
2.06705404,-0.000220937437,0.0252148064,-0.0020305993,0.999679945,0.0504339606,-0.000544135813,-0.00404876867,0.494378495,0.00533614942,-9.79417923,-0.248374749,0.187547593,-0.0193541043,-0.465996504,0.310274273,-0.0250934158,24.9823685,6.6472702,-43.7705383,2
2.07701204,-0.00248034048,0.0266690155,-0.00215064442,0.999638976,0.0533340736,-0.00507362295,-0.0041675052,0.522773947,0.049755033,-9.79257939,-0.233524934,0.187870359,-0.168945531,-0.436944366,0.269021094,-0.0452431627,25.178299,6.78863525,-43.7210388,2
2.08697004,-0.00453039269,0.0278727529,-0.00238113945,0.999598428,0.055732745,-0.009190014,-0.0045080231,0.54624557,0.0901219777,-9.79100995,-0.157337949,0.115181682,-0.312221783,-0.38224113,0.21276398,-0.0678772628,25.405899,7.18032074,-43.6651917,2
2.09692804,-0.00627797981,0.0288060085,-0.00273530202,0.999561589,0.0575888895,-0.0127083833,-0.00510695317,0.564396399,0.124623309,-9.78960242,-0.060118186,0.117341555,-0.431543743,-0.31611377,0.163418263,-0.0923892632,25.6781235,7.39998627,-43.6632996,2
2.10688604,-0.00769006019,0.0295375526,-0.00321497351,0.999528957,0.0590392698,-0.0155634289,-0.00597338606,0.578571092,0.152618939,-9.78837843,-0.0555881413,0.145908957,-0.546342673,-0.248583019,0.133758023,-0.113344654,25.5722351,7.57278442,-43.7573853,2
2.11684404,-0.00878578594,0.0301581514,-0.00378065821,0.999499356,0.0602656799,-0.0177917487,-0.00702877508,0.590553279,0.17446824,-9.78729765,-0.0128029656,0.177031368,-0.602939005,-0.18681474,0.117961489,-0.124184258,25.6950607,7.66691589,-43.5158386,2
2.12680204,-0.00957785948,0.0307129673,-0.00437044659,0.999472877,0.0613598903,-0.0194153001,-0.00814958284,0.601244111,0.190387091,-9.78634955,0.0818510021,0.22665377,-0.598798837,-0.123184286,0.106187187,-0.118315756,25.7262192,7.70149994,-43.1549683,2
2.13676004,-0.0100474194,0.0311835488,-0.00489172838,0.999451285,0.0622877863,-0.0203903083,-0.00915349062,0.610312712,0.199946763,-9.78559786,0.222719316,0.274106042,-0.554510198,-0.0599651113,0.0839945301,-0.094212018,25.72155,7.63716888,-43.2603149,2
2.14671804,-0.0102186155,0.0315451215,-0.0052885183,0.9994361,0.0630018214,-0.0207608517,-0.00992867998,0.617295082,0.203579786,-9.78508465,0.332005218,0.314316819,-0.423790645,-0.00652741408,0.0625049919,-0.0639224425,25.64785,7.72601318,-43.1847229,2
2.15667504,-0.0101442452,0.0317700808,-0.00551142385,0.999428496,0.0634480814,-0.0206285553,-0.0103743744,0.621663433,0.202282677,-9.78483506,0.433281089,0.306037121,-0.290413856,0.0376831926,0.0282892305,-0.022832267,25.6248627,7.75409698,-43.2510376,2
2.16663304,-0.00984065778,0.0318286845,-0.0055129893,0.999429677,0.0635680973,-0.020022371,-0.0103955307,0.622845483,0.196339259,-9.78488124,0.528016889,0.267687827,-0.213155259,0.083047919,-0.000886050635,0.024921434,25.5685883,7.84001923,-43.1695251,2
2.17659104,-0.00933339021,0.0317686829,-0.00528192145,0.999437768,0.0634570636,-0.0189930266,-0.00996684717,0.621771497,0.186246758,-9.78514661,0.531933917,0.293193002,-0.0892892258,0.114617564,-0.023481641,0.0714681596,25.5321274,7.70449829,-43.3250732,2
2.18654983,-0.00874568434,0.0315841503,-0.00484458008,0.999451148,0.0631007356,-0.0177887306,-0.00913296414,0.618298414,0.174438648,-9.78558442,0.472110293,0.331187692,0.146678169,0.113779098,-0.0526502877,0.111238413,25.4778824,7.70162964,-43.6242065,2
2.19650783,-0.00823782132,0.0312314778,-0.0042149312,0.999469359,0.0624096016,-0.0167309576,-0.00791202041,0.611546273,0.164066983,-9.78618823,0.455219729,0.269583651,0.388198523,0.0780160427,-0.0905225649,0.146245122,25.512764,7.46791077,-43.5769043,2
2.20646583,-0.00796935441,0.0307328122,-0.00345805419,0.999489864,0.0614257715,-0.0161438306,-0.0064236201,0.601923874,0.158310027,-9.78687972,0.365333122,0.158174382,0.600926497,0.0186914615,-0.108906105,0.159182221,25.5475159,7.57427216,-43.4970703,2
2.21642383,-0.00799772083,0.030179007,-0.0026494919,0.999508997,0.0603304507,-0.0161482077,-0.00481430172,0.591203669,0.158352935,-9.78753204,0.220879095,0.108302152,0.660386401,-0.0375875235,-0.116181321,0.163668051,25.5309677,7.47782898,-43.6459961,2
2.22638183,-0.00827562101,0.0296075859,-0.00179503396,0.9995257,0.0592001506,-0.0166504543,-0.00309875733,0.580135674,0.163277641,-9.78811364,0.154285174,0.0804828921,0.585700286,-0.0784503892,-0.118640348,0.175810128,25.5436935,7.47615051,-43.6669617,2
2.23633983,-0.00866462136,0.028941869,-0.0008458196,0.999543267,0.0578836895,-0.0173711607,-0.00118950565,0.567242546,0.170344328,-9.78874902,0.230325371,0.0366053545,0.477848398,-0.0847138762,-0.157259643,0.200602561,25.5516663,7.59427643,-43.5044556,2
2.24629683,-0.0090100993,0.028042365,0.000229542341,0.999566168,0.0561030458,-0.0180004791,0.000964370884,0.549805271,0.17651487,-9.78963457,0.303727145,0.0260953222,0.367253934,-0.06469208,-0.207291767,0.223314196,25.5516663,7.59427643,-43.5044556,2
2.25625483,-0.00923562462,0.026888544,0.0013778606,0.999594901,0.0538158224,-0.0183907059,0.00325182548,0.527409023,0.180341041,-9.7907966,0.181423831,0.0735948496,0.257833775,-0.0369805507,-0.258563727,0.229799524,25.312027,7.43357086,-43.5083313,2
2.26621283,-0.00934453548,0.0255305644,0.00251010464,0.99962726,0.0511200658,-0.0185550007,0.0054964544,0.501012014,0.181951965,-9.79215327,-0.0416250459,0.0864987913,0.106709732,-0.0227619354,-0.284898937,0.218355656,25.3192062,7.27108765,-43.5535583,2
2.27617083,-0.00945681464,0.0241779037,0.00355596127,0.999656624,0.0484338912,-0.0187362796,0.00756817299,0.474705205,0.183729386,-9.79343045,-0.184259128,0.0420746345,-0.00887947203,-0.0398218781,-0.255175143,0.196788311,25.3291473,7.47093201,-43.7342834,2
2.28612883,-0.00973604421,0.0230797429,0.00447607278,0.999676205,0.0462567685,-0.019260361,0.00940053968,0.453378084,0.188867937,-9.79434348,-0.253761995,-0.0616750965,-0.0815887344,-0.0836593956,-0.184776634,0.16488494,25.3565063,7.45716095,-43.798584,2
2.29608683,-0.0102091217,0.0223851463,0.00522330744,0.999683671,0.0448869888,-0.0201793051,0.0109028114,0.439953589,0.197877958,-9.79477778,-0.311864275,-0.155080708,-0.215828278,-0.112973608,-0.0970068201,0.129083261,25.0573349,7.28114319,-43.7781372,2
2.30604483,-0.0107485847,0.0220956277,0.00582286425,0.999681165,0.0443268455,-0.0212345915,0.0121200379,0.434457548,0.208224562,-9.79480876,-0.310707725,-0.129364649,-0.397457349,-0.10351643,-0.0213511847,0.108836614,24.9992447,7.37715149,-43.8113098,2
2.31600283,-0.0111405905,0.0221197646,0.00638946628,0.999672904,0.0443927353,-0.021992999,0.013271206,0.43509581,0.215660265,-9.79461937,-0.234132983,-0.0712590636,-0.566288314,-0.0568709038,0.0280107725,0.116197325,24.9377365,7.26891327,-44.043335,2
2.32596083,-0.0112750572,0.0223057444,0.00701027245,0.9996631,0.0447805687,-0.0222316099,0.0145229176,0.438892133,0.217999667,-9.79439784,-0.151139533,0.0561373179,-0.503212557,-0.00252949703,0.037582837,0.133497387,24.8450089,7.31637573,-43.9217224,2
2.33591883,-0.0111616422,0.0224229369,0.00771749898,0.999656528,0.0450288301,-0.0219712866,0.0159347702,0.441326229,0.215447389,-9.79434523,-0.142500409,0.0820330624,-0.366796254,0.040077351,0.00276919804,0.151759222,24.9929276,7.38554382,-43.739563,2
2.34587583,-0.0108877995,0.0223486177,0.00848136067,0.999655055,0.0448918473,-0.0213906253,0.0174484015,0.439990085,0.209754383,-9.79452877,-0.069936802,-0.0502398025,-0.177171507,0.061419256,-0.036195375,0.155330613,25.2177124,7.30662537,-43.7087097,2
2.35583383,-0.0105385478,0.0220758795,0.00921219507,0.999658309,0.0443548481,-0.0206646299,0.0188885458,0.434737023,0.202636368,-9.79491338,-0.0803956887,-0.224482563,0.0334539413,0.0689498782,-0.0806898698,0.137642428,25.1839523,7.18166351,-43.7392578,2
2.36579183,-0.0101939555,0.0215691498,0.00981829545,0.999667227,0.0433463223,-0.0199589071,0.0200751528,0.424864485,0.195717017,-9.79548739,-0.161652378,-0.349244303,0.168103235,0.059567146,-0.124252148,0.10518977,25.1762924,7.18166351,-43.7767944,2
2.37574983,-0.00990733421,0.0208837751,0.0102565927,0.999680233,0.041977634,-0.0193811529,0.020925888,0.4114618,0.190052287,-9.79617069,-0.248357323,-0.407474849,0.230437818,0.0502833687,-0.153284863,0.071912244,25.1580887,7.16342163,-43.6374207,2
2.38570783,-0.00963698875,0.0200492453,0.01054907,0.99969691,0.0403077296,-0.0188462496,0.0214836416,0.395106585,0.184807628,-9.7969446,-0.294849865,-0.419887427,0.189162974,0.0541695617,-0.184118569,0.0457350351,25.0098114,7.14769745,-43.9638062,2
2.39566583,-0.00930637925,0.019059638,0.0107178554,0.99971766,0.038323728,-0.0181999512,0.0217897437,0.375673168,0.178470699,-9.79782664,-0.269430945,-0.443627637,0.0431008906,0.0754394308,-0.215699926,0.0198416524,25.0767288,7.15790558,-44.0091858,2
2.40562383,-0.00884123173,0.0179105992,0.0107582276,0.999742721,0.0360153838,-0.0172934035,0.0218326217,0.353061122,0.169581911,-9.79882501,-0.211504423,-0.47529064,-0.0989542952,0.107682779,-0.248129845,-0.00436404441,24.8957138,7.04593658,-44.0255432,2
2.41558183,-0.00820374248,0.0166217516,0.0107020008,0.999770965,0.0334220073,-0.016048644,0.0216763091,0.327654695,0.157376674,-9.79991105,-0.132527771,-0.48627925,-0.229998258,0.145429358,-0.269672662,-0.0173871685,24.8129959,7.01203918,-44.0909119,2
2.42553983,-0.00739613572,0.0152862153,0.0105939439,0.99979976,0.0307310689,-0.0144659313,0.0214136398,0.301289872,0.14185738,-9.80099417,-0.0599249101,-0.402076278,-0.270813668,0.170826524,-0.264465213,-0.0266741011,24.5955658,6.81328583,-44.1629333,2
2.43549683,-0.00653716458,0.0140569847,0.0104327478,0.999825434,0.0282515272,-0.0127790887,0.0210489116,0.276993361,0.125316643,-9.80193642,-0.0498439716,-0.295304075,-0.230816004,0.168398514,-0.229870483,-0.0335538462,24.5024872,6.70194244,-44.2059937,2
2.44545483,-0.00574113454,0.0130354942,0.010265858,0.999845885,0.0261894857,-0.0112130934,0.020681003,0.256785617,0.109960578,-9.80267057,-0.00344964726,-0.26303896,-0.156460143,0.148243755,-0.182272047,-0.0300149377,24.4522858,6.70536041,-44.2547607,2
2.45541283,-0.0050583229,0.0122481541,0.0101271572,0.999860899,0.0245990319,-0.00986732071,0.0203778095,0.241198026,0.0967637903,-9.803206,0.0315908326,-0.186994379,-0.114475105,0.126549363,-0.135493085,-0.0240380056,24.4992523,6.76734161,-43.9413147,2
2.46537083,-0.00446213697,0.0117319365,0.0100023423,0.999871268,0.0235531828,-0.00868854074,0.0201089226,0.23094774,0.0852044042,-9.80356022,-0.0470436369,-0.0817618534,-0.147639708,0.11028038,-0.0730235949,-0.0244859494,24.4133987,6.84488678,-44.120697,2
2.47532883,-0.00394999304,0.011526004,0.0098784595,0.999876994,0.023129955,-0.00767137125,0.019847431,0.226800466,0.0752297162,-9.8037385,-0.093773148,-0.0283922603,-0.168111418,0.0954921097,-0.0142881069,-0.0233786069,24.580368,6.83770752,-44.2300415,2
2.48528683,-0.00350308773,0.0115583568,0.00976038672,0.999879501,0.0231849209,-0.0067797551,0.0196011067,0.227340802,0.0664861775,-9.80378935,-0.126784862,-0.00378714016,-0.167013101,0.0880265236,0.0218592957,-0.0220596846,24.2247925,6.69597626,-44.3964844,2
2.49524483,-0.00308042932,0.011722489,0.00963859839,0.99988018,0.0235041287,-0.00593417856,0.0193486555,0.230471483,0.0581940723,-9.80376889,-0.113754645,0.0149796018,-0.161945881,0.0812194869,0.0442924351,-0.025864277,24.3711548,6.65673828,-44.2792358,2
2.50520283,-0.00269799274,0.0119848016,0.00949061776,0.999879578,0.0240205585,-0.00516787234,0.0190450252,0.235535415,0.0506792899,-9.80368998,-0.126599733,0.0361114016,-0.14840777,0.0763641223,0.0598589852,-0.0307137482,24.3179169,6.52130127,-44.1004028,2
2.51516083,-0.00234597368,0.0123047851,0.00931815884,0.999878117,0.0246530335,-0.00446207442,0.0186930543,0.241736772,0.0437578567,-9.80357249,-0.0898550978,0.0572484072,-0.0758013832,0.0653098747,0.0675885454,-0.0363458022,24.6013641,6.5754776,-44.3323059,2
2.52511783,-0.00205728725,0.012647369,0.00912024618,0.999876355,0.0253320365,-0.00388338127,0.0182914334,0.248393984,0.0380828661,-9.80342987,-0.0248358967,0.0232694306,0.0391273108,0.0536628962,0.0673572049,-0.0430157073,24.52108,6.52133179,-44.2824707,2
2.53507583,-0.0018442381,0.0129753786,0.00887278273,0.999874764,0.0259833132,-0.00345776574,0.0177922475,0.254779063,0.0339090304,-9.8032814,-0.0354108293,0.0623088279,0.162429865,0.0325083435,0.0672986135,-0.0552872866,24.4518127,6.48932648,-44.2311096,2
2.54503383,-0.00177726488,0.0133155358,0.00857149139,0.999873099,0.0266614657,-0.00332581682,0.0171890793,0.261427251,0.0326150611,-9.80311072,-0.054478938,0.146502027,0.307557298,-0.0027227595,0.0683195293,-0.064498812,24.5129318,6.61997223,-44.1942749,2
2.55499183,-0.00188340886,0.0136423411,0.00825370864,0.999871207,0.0273158263,-0.00354114016,0.0165575398,0.267841757,0.0347266487,-9.8029301,-0.0568532293,0.180602742,0.340745867,-0.0374405272,0.0664790198,-0.0634657666,24.6290436,6.61114502,-44.1572571,2
2.56494983,-0.00212782068,0.0139679187,0.00793632404,0.999868717,0.0279698183,-0.00403338574,0.0159308101,0.274252227,0.039553893,-9.80273487,-0.0399202512,0.198071489,0.289673851,-0.0566612035,0.0646130964,-0.0659375191,24.6110001,6.46588898,-43.9713135,2
2.57490783,-0.00243434383,0.014267693,0.00761997422,0.999866204,0.0285728639,-0.00465061411,0.0153081378,0.280162913,0.0456067816,-9.8025414,0.00549476149,0.200248687,0.229625333,-0.0605773851,0.0565676913,-0.0602780357,24.6012497,6.55685425,-44.0196228,2
2.58486583,-0.0027164192,0.0145025778,0.00735138806,0.999864189,0.0290456346,-0.00521889609,0.0147803089,0.284796436,0.0511796544,-9.80238007,0.129848853,0.19033631,0.161528533,-0.0496926382,0.0330507793,-0.0467375554,24.5895538,6.61553955,-44.1644287,2
2.59482383,-0.00291641924,0.0145235043,0.00718070792,0.999864587,0.0290895214,-0.0056235002,0.0144449151,0.285226005,0.0551474072,-9.80234617,0.277859787,0.185919645,0.125132693,-0.0295607373,-0.0285151135,-0.0231004022,24.5895538,6.61553955,-44.1644287,2
2.60478183,-0.00300905368,0.0141744359,0.00714283307,0.999869509,0.0283924533,-0.00581486355,0.0143698427,0.278392743,0.0570240102,-9.80253204,0.414877782,0.226839392,0.107062783,-0.00662201364,-0.110672712,0.0069121737,24.5494232,6.61495972,-44.0478821,2
2.61473983,-0.00298612555,0.0134538643,0.00725138804,0.9998788,0.0269514868,-0.00577644101,0.0145821283,0.264267388,0.0566472219,-9.80292484,0.474941863,0.262081751,0.0645101738,0.0147234891,-0.174651429,0.036300689,24.5233154,6.6844635,-43.9885559,2
2.62469683,-0.00287342509,0.0125281028,0.00748238853,0.999889428,0.0250994583,-0.00555876311,0.0150359183,0.246111955,0.0545125617,-9.80340941,0.455238946,0.237880188,-0.0490291116,0.0249894746,-0.188953623,0.0546360612,24.529274,6.53158569,-43.8326416,2
2.63465483,-0.00276430539,0.0116578448,0.00779137033,0.999897904,0.0233588425,-0.00534641063,0.0156464634,0.22904788,0.0524301294,-9.80383436,0.360823024,0.254477468,-0.150507372,0.0136225699,-0.161836788,0.0707058385,24.3989182,6.53432465,-44.178009,2
2.64461283,-0.00274981158,0.010946258,0.00819511904,0.99990279,0.0219375278,-0.00531970186,0.0164498197,0.215113353,0.0521682088,-9.80415175,0.307869579,0.226008969,-0.224410813,-0.0116417324,-0.120996915,0.0911196917,24.2613907,6.4495697,-44.1288757,2
2.65457083,-0.00284298904,0.0104679667,0.008711767,0.999903242,0.0209853006,-0.00550306671,0.017482524,0.205777278,0.0539663762,-9.80434231,0.333216859,0.117968107,-0.302031813,-0.0275378749,-0.0677350238,0.117525995,24.1387863,6.43466187,-44.3252563,2
2.66452883,-0.00299239045,0.0102813564,0.00935580129,0.999898925,0.0206184334,-0.00579182772,0.0187726604,0.202180039,0.0567981108,-9.80440134,0.298656528,0.0522885837,-0.335790874,-0.0339732803,-0.00837251171,0.139611408,24.1810684,6.42196655,-44.1832275,2
2.67448683,-0.00312740767,0.0103349564,0.0101207839,0.999890495,0.020732817,-0.00604497149,0.0203057608,0.203301207,0.059280557,-9.80436335,0.284516888,0.00192210434,-0.360668711,-0.0231675077,0.0255396478,0.167402282,24.0628204,6.44634247,-44.2640381,2
2.68444483,-0.00319391693,0.0104829274,0.0110102906,0.99987932,0.0210356064,-0.00615626171,0.0220871013,0.206269701,0.0603719233,-9.80429438,0.276011784,-0.0207170769,-0.283524096,-0.00789813604,0.030695131,0.190629214,24.1483688,6.48487854,-44.2221985,2
2.69440283,-0.00318374387,0.0106079475,0.0120212079,0.999866374,0.0212916112,-0.00611163424,0.024109535,0.208779711,0.0599342853,-9.80424411,0.229209062,-0.0386848597,-0.109546416,0.00584856886,0.0165854357,0.215874657,24.3604813,6.50828552,-44.1385498,2
2.70436083,-0.0031102557,0.0106319047,0.0131450412,0.999852243,0.0213444336,-0.00594011355,0.0263558497,0.209297799,0.0582522733,-9.80424294,0.201905825,-0.0117140972,0.0625362434,0.0163536202,-0.0106656738,0.236486003,24.3354034,6.53194427,-44.2597656,2
2.71431783,-0.00301871063,0.0105149075,0.014352848,0.999837231,0.0211149622,-0.00573463224,0.0287689477,0.207048248,0.0562372209,-9.80430256,0.0962666636,-0.064765683,0.193828043,0.0116480803,-0.0386829264,0.245785758,24.2434006,6.42813873,-44.2862244,2
2.72427583,-0.00297168624,0.0102611067,0.0155300839,0.99982239,0.020612655,-0.00562363483,0.0311211522,0.202123578,0.055148727,-9.80441187,-0.0807679743,-0.186380029,0.241970435,-0.00174831832,-0.0626331717,0.221273005,24.3318787,6.40408325,-44.096344,2
2.73423383,-0.00304389294,0.00996005887,0.0165039829,0.999809614,0.0200184668,-0.00575789739,0.033068891,0.196297739,0.0564653717,-9.80452234,-0.315559403,-0.328356012,0.19988369,-0.0324202105,-0.0540202409,0.166983932,24.2793961,6.16092682,-44.2456055,2
2.74419183,-0.00327155275,0.0097306078,0.0171766646,0.999799856,0.0195713357,-0.00620755702,0.0344175795,0.191913296,0.06087495,-9.80458313,-0.497773033,-0.416412992,0.149216748,-0.0610237382,-0.0406997502,0.104009435,24.2294388,6.11527252,-44.2762451,2
2.75414983,-0.00358814694,0.00951058134,0.0175871174,0.999793697,0.0191450663,-0.00684033932,0.0352433488,0.187733106,0.0670802892,-9.80462346,-0.444811002,-0.474692236,0.0410690925,-0.0611600913,-0.0485377014,0.0617485233,24.1830292,6.1364975,-44.2377014,2
2.76410783,-0.00378942073,0.00926589682,0.017830157,0.999790969,0.0186646256,-0.0072468959,0.0357316257,0.183022023,0.0710671486,-9.80468425,-0.218486611,-0.436780548,-0.238393161,-0.0162939243,-0.045588363,0.0360066071,24.1537933,6.15061951,-44.1565247,2
2.77406583,-0.00370755681,0.00912148195,0.0179610831,0.999790219,0.0183738154,-0.00708595399,0.0359909402,0.180170908,0.0694888893,-9.80474855,-0.176729737,-0.248304935,-0.492263877,0.0476062298,-0.00881489925,0.0182262771,24.2893448,6.19059753,-44.1178284,2
2.78402383,-0.00335038425,0.00920023124,0.0180492762,0.999789171,0.018518961,-0.00636728378,0.0361612036,0.181594913,0.0624412997,-9.80476959,-0.154810257,-0.121397625,-0.57559098,0.0916320831,0.0372972749,0.0200518314,24.2577362,6.24358368,-44.3132019,2
2.79398183,-0.00289008503,0.00947965619,0.0181475857,0.999786171,0.0190615903,-0.00543489509,0.0363507462,0.186916273,0.0532978521,-9.80472342,-0.0594255092,-0.0443187054,-0.420163687,0.091175884,0.0700096786,0.0222721081,24.3320007,6.17890167,-44.2438965,2
2.80393983,-0.00252091253,0.00986891125,0.0182454671,0.999781665,0.0198270197,-0.00468061554,0.036541256,0.194421771,0.0459009925,-9.80461528,-0.0332625469,-0.00849070104,-0.186088973,0.0566026904,0.0838495642,0.017236758,24.3102036,6.13730621,-44.2743835,2
2.81389683,-0.00235331425,0.0103446453,0.0183083015,0.99977609,0.0207725167,-0.00432680236,0.0366656506,0.203692252,0.0424313025,-9.80444226,-0.0768000571,0.0657575664,-0.0547299536,0.0136554884,0.103482917,0.0104243923,24.4112015,6.07131195,-44.1882019,2
2.82385483,-0.00235210153,0.0108509249,0.0183770072,0.999769515,0.0217852219,-0.00430431706,0.0368052379,0.21362116,0.0422108007,-9.80423242,-0.0858311212,0.156957736,-0.0407248091,-0.00832399353,0.0972235426,0.0208933614,24.423172,6.09012604,-44.1278076,2
2.83381283,-0.00238502623,0.0112940495,0.0185407393,0.999761481,0.0226733086,-0.00435012838,0.037135393,0.222328052,0.0426600515,-9.8040366,0.0489644489,0.158453783,-0.128907535,0.00200374564,0.0817007795,0.0437581949,24.4782181,6.03952789,-44.2369385,2
2.84377083,-0.00231130867,0.0116738048,0.0188038448,0.999752465,0.023431102,-0.00418246046,0.0376615757,0.229757581,0.0410158051,-9.80387235,0.127576542,0.139298398,-0.229179343,0.0296251532,0.0706469715,0.0621310212,24.5221481,6.06098175,-44.2392883,2
2.85372883,-0.00211785077,0.0120488576,0.0191454215,0.999741951,0.0241751179,-0.00377325656,0.0383416639,0.23705214,0.0370029185,-9.80371453,0.121927997,0.142563099,-0.215271229,0.0462363549,0.0818892345,0.0752681345,24.5471039,5.95178223,-44.4112244,2
2.86368683,-0.00190682378,0.0125046905,0.0195498837,0.999728924,0.0250799255,-0.0033236894,0.039147071,0.245922917,0.0325941987,-9.8035117,0.0784909511,0.125872916,-0.083194416,0.038211517,0.0966935381,0.0878400579,24.4248047,6.06374359,-44.1908264,2
2.87364483,-0.00176459951,0.0130049881,0.020013612,0.999713648,0.0260762332,-0.0030076394,0.0400725645,0.255690351,0.0294948216,-9.80327146,0.0248796628,0.097997305,0.0855067846,0.0180756189,0.102362871,0.0985395759,24.6673508,5.98509979,-44.3897705,2
2.88360283,-0.00174494765,0.013507862,0.0205024455,0.999697037,0.0270825178,-0.00293495379,0.0410513149,0.265555163,0.0287820222,-9.80301135,-0.0325699068,0.102899955,0.252092601,-0.0108198617,0.0943580344,0.0964066237,24.5876465,5.8922348,-44.4746399,2
2.89356083,-0.00186967655,0.0138717751,0.0209756718,0.999682061,0.0278168907,-0.00315622985,0.0420024352,0.27275397,0.030951989,-9.80280735,-0.118926988,0.105668031,0.35917818,-0.0391084924,0.0495775118,0.0926358551,24.6645737,5.76808167,-44.2513428,2
2.90351783,-0.00207399909,0.0139732472,0.0214584844,0.999669961,0.0280301273,-0.00354694721,0.0429742619,0.274843928,0.0347835962,-9.80273604,-0.102910796,0.0701132545,0.357011942,-0.0407551154,-0.00776008097,0.103487767,24.64254,5.84731293,-44.1648865,2
2.91347583,-0.00221012852,0.0138075159,0.0219955576,0.999660282,0.0277066224,-0.0038113566,0.0440517694,0.271672422,0.037376549,-9.80281495,-0.00905888371,0.0223297477,0.200121006,-0.0159325898,-0.0539669916,0.110116914,24.6371765,5.85806274,-44.0961914,2
2.92343383,-0.00219447418,0.0134639602,0.0225513217,0.99965263,0.0270210242,-0.00378017258,0.0451617415,0.264951589,0.0370707413,-9.80300025,-0.0210427698,-0.0289894179,0.0482744938,0.0154019054,-0.0839951858,0.113443479,24.5417252,5.93504333,-44.1016846,2
2.93339183,-0.00203907013,0.0130114148,0.0231235718,0.999645868,0.0261110399,-0.00347496228,0.0463006488,0.256031182,0.0340776696,-9.80324808,-0.0401045948,-0.0774716819,-0.043953708,0.0390196182,-0.0945437029,0.11540623,24.6432266,5.88258362,-44.113739,2
2.94334983,-0.001809786,0.0125842071,0.023689019,0.999638551,0.0252478589,-0.00302205326,0.0474244541,0.247569479,0.0296361731,-9.80347955,-0.0395736663,-0.131388849,-0.0717044693,0.0443494134,-0.075703688,0.111748919,24.5168381,5.83089447,-44.399353,2
2.95330783,-0.00159522351,0.0122881159,0.0242185434,0.999629925,0.0246469829,-0.00259406869,0.0484775145,0.241679051,0.0254390959,-9.80363854,-0.0869542435,-0.146345385,-0.0344353536,0.0332874395,-0.047047276,0.102427594,24.5168381,5.83089447,-44.399353,2
2.96326583,-0.00148394144,0.0121298535,0.0246792538,0.999620787,0.0243262198,-0.00236804817,0.0493960137,0.238534524,0.023222598,-9.80372096,-0.176435412,-0.100883619,0.0397182624,0.00678737927,-0.0204761308,0.0843862668,24.6349945,5.67062378,-44.359314,2
2.97322383,-0.00149799657,0.0120399816,0.025073204,0.999612055,0.0241481564,-0.0023910713,0.0501842309,0.236788831,0.0234483764,-9.80376305,-0.238435301,-0.0229985709,0.0925818376,-0.013895262,-0.0178009868,0.0749488175,24.4474258,5.69759369,-44.3708496,2
2.98318183,-0.00155937463,0.0119125517,0.0254433354,0.999604118,0.0238973727,-0.00251132716,0.0509258477,0.234330131,0.0246276813,-9.80381916,-0.200512489,-0.0261231623,0.0519365235,-0.00945974793,-0.0345501117,0.0743011683,24.5858536,5.6177597,-44.2365112,2
2.99313983,-0.00151897734,0.0117089997,0.0258248622,0.999596818,0.0234892419,-0.00243196563,0.0516876361,0.230328914,0.0238494133,-9.80391561,-0.107925829,-0.03387424,-0.0856330414,0.0238811634,-0.0476288944,0.0794557109,24.5057678,5.72268677,-44.2376099,2
3.00309683,-0.00129405926,0.0114173338,0.0262148812,0.999590319,0.0228952054,-0.00198845143,0.0524619974,0.224505213,0.0195000338,-9.80406057,-0.0645430715,-0.0440397058,-0.149383921,0.0597508028,-0.0721371174,0.078316614,24.5485458,5.79406738,-44.1621094,2
3.01305483,-0.000940079531,0.0110173614,0.0265706355,0.999585771,0.0220773643,-0.00129390402,0.053165059,0.216487217,0.0126888605,-9.80425171,-0.111142819,-0.0505462792,-0.0932277343,0.0724647343,-0.09110149,0.0646157116,24.5033798,5.65997314,-44.3225708,2
3.02301283,-0.000598042461,0.0105792784,0.0268350612,0.999583792,0.0211834358,-0.000627795978,0.0536862343,0.207722969,0.00615657498,-9.80444811,-0.168518373,-0.0706494894,-0.0204576816,0.0561775006,-0.0862568021,0.0435989387,24.4836731,5.65184784,-44.2577515,2
3.03297083,-0.000363525994,0.0101929793,0.0270173815,0.999583035,0.0203985164,-0.000175973611,0.0540459512,0.200027227,0.00172571155,-9.80460943,-0.15319115,-0.0751968779,0.0594604892,0.0315712243,-0.0735013261,0.0307904687,24.4856796,5.59302521,-44.2369385,2
3.04292883,-0.000248860158,0.00986294693,0.0271368744,0.999583158,0.0197324584,3.77862578E-05,0.0542826886,0.193496747,-0.000370556589,-9.80474095,-0.123616461,-0.01399376,0.0773988815,0.0101395091,-0.0584823564,0.0168461129,24.4591446,5.51978302,-44.164032,2
3.05288683,-0.000239758214,0.00962952758,0.0271768905,0.999584256,0.0192652718,4.40841602E-05,0.0543625735,0.188916087,-0.000432317941,-9.80483038,-0.179489392,0.0571458647,0.0777875886,-0.00881713722,-0.0341301449,0.0011574321,24.3576508,5.48153687,-44.0699768,2
3.06284483,-0.000334687839,0.00951711869,0.0271702314,0.999585486,0.0190456861,-0.00015193358,0.0543510643,0.186763091,0.00148995943,-9.8048713,-0.190504488,0.0996659598,0.11000059,-0.030621998,-0.00916350726,-0.0014145365,24.2816315,5.27960205,-44.2521973,2
3.07280283,-0.000552801828,0.00952697176,0.0271623941,0.999585496,0.0190772369,-0.00058759469,0.054339551,0.187072413,0.00576233495,-9.8048637,-0.155798611,0.142080512,0.129894792,-0.055479411,0.0158544946,-0.000910133822,24.287262,5.25796509,-44.2966919,2
3.08276083,-0.000891744401,0.00962641418,0.0271659397,0.999584219,0.019294486,-0.00125972642,0.0543532594,0.189202374,0.0123536932,-9.80481694,-0.170498149,0.172898561,0.126107091,-0.0754279345,0.0261693299,0.00241740234,24.3128891,5.31117249,-44.3287964,2
3.09271883,-0.00127620289,0.00974025058,0.0272071229,0.999581604,0.0195430781,-0.00202133086,0.054443343,0.191639538,0.0198224707,-9.80475732,-0.0862951403,0.189820707,0.095970311,-0.0741450936,0.0210685767,0.0139579456,24.3297577,5.54750061,-44.384613,2
3.10267583,-0.0016048991,0.00976871801,0.0273293881,0.999577548,0.0196182328,-0.00267449924,0.0546945021,0.192376109,0.0262278465,-9.80472809,0.0452479308,0.18865265,0.0306990896,-0.0534683838,-0.0101325586,0.0326254144,24.3310013,5.56423187,-44.2912903,2
3.11263383,-0.0017778761,0.00960785488,0.0275301064,0.999573322,0.0193066888,-0.00302522912,0.05509901,0.189321306,0.0296673172,-9.80477778,0.10172334,0.204217153,-0.0497562568,-0.0191045515,-0.0514411144,0.0481234118,24.3295517,5.61051941,-44.2242737,2
3.12259183,-0.00178957029,0.00927424156,0.0278011381,0.999568977,0.0186411595,-0.00306193372,0.0556404696,0.182795887,0.0300272662,-9.80489994,0.0766752617,0.218521682,-0.132234049,0.00871670246,-0.0836275369,0.0603372157,24.2038345,5.61089325,-44.1662292,2
3.13254983,-0.00168807789,0.00882134052,0.0281205947,0.999564317,0.0177309364,-0.00287856614,0.0562764014,0.17387126,0.0282290508,-9.8050677,0.0272412043,0.182461595,-0.189376909,0.023724148,-0.0964381397,0.0653165281,24.2298126,5.4994812,-44.3340149,2
3.14250783,-0.00153738052,0.0084043266,0.0284547134,0.999558635,0.0168895857,-0.00259512146,0.0569411067,0.16562183,0.0254494186,-9.80521851,-0.02541187,0.160401392,-0.247136439,0.0293004215,-0.0681895763,0.0681015775,24.3255692,5.66368103,-44.3855286,2
3.15246583,-0.00139746809,0.00820420308,0.0287895795,0.999550922,0.0164822932,-0.00232129201,0.0576082457,0.161628321,0.0227640771,-9.80529157,-0.0649629043,0.127772247,-0.286717339,0.021353282,-0.0119231101,0.0676240698,24.3149338,5.6796875,-44.4297791,2
3.16242383,-0.0013337415,0.00827647677,0.0291166726,0.999540984,0.016623829,-0.0021842934,0.0582617868,0.163016177,0.0214205832,-9.8052717,-0.051985532,0.0828777239,-0.273120191,0.00347735616,0.0375254117,0.0649721101,24.1390839,5.46718597,-44.2958069,2
3.17238183,-0.00134444508,0.00853683067,0.0294461326,0.999529031,0.0171456786,-0.00218487222,0.0589217117,0.168133027,0.0214262595,-9.80518519,-0.0235835768,0.0258601206,-0.241483528,-0.00620003883,0.0649983138,0.0679593831,24.206337,5.43185425,-44.1578674,2
3.18233983,-0.00138365464,0.00891203522,0.0297919311,0.9995154,0.0178988768,-0.00223495663,0.0596151045,0.175518205,0.02191742,-9.80505484,0.0490873628,-0.0350846295,-0.232485983,-0.00395170739,0.0853593349,0.0705352351,24.0894089,5.34767151,-44.2479553,2
3.19229779,-0.00140364624,0.00935412121,0.03013661,0.999501023,0.0187846617,-0.00224209058,0.0603061035,0.184203306,0.02198738,-9.80489527,0.0375591481,-0.0593958813,-0.172042328,-0.00200520316,0.0887165144,0.067010805,24.2979202,5.39568329,-44.3039856,2
3.20225479,-0.00140189544,0.00977340325,0.0304703719,0.999486905,0.0196235169,-0.00220675559,0.0609748027,0.19242815,0.0216408612,-9.80473803,-0.00403486327,-0.0936156559,-0.11937749,0.00470195897,0.0816692412,0.0646789297,24.42379,5.37789917,-44.1777649,2
3.21221279,-0.00136653981,0.0101783798,0.03076585,0.999473914,0.0204316025,-0.00210535032,0.0615661697,0.200351198,0.0206464183,-9.80458138,-0.0378452168,-0.187192167,-0.113249363,0.0121902348,0.0803994462,0.0538481176,24.382225,5.23956299,-44.0986633,2
3.22217079,-0.00131782759,0.0105414881,0.0310225976,0.999462354,0.0211550252,-0.00198019073,0.0620796091,0.207444042,0.019419025,-9.80443642,-0.112274983,-0.147807192,-0.0147831431,0.0118927695,0.0626348481,0.0501998663,24.3510361,5.23190308,-44.1847534,2
3.23212879,-0.00127187357,0.0107990675,0.0312760454,0.999451676,0.0216675837,-0.00186684917,0.0625862217,0.212469414,0.0183075258,-9.8043312,-0.0917123247,-0.122604033,0.0578355184,0.0116770528,0.0404280759,0.0535932668,24.4068222,5.20840454,-43.9240723,2
3.24208679,-0.00121768215,0.0109670749,0.0315342215,0.999441782,0.0220005111,-0.00174232938,0.0631019103,0.215733585,0.017086406,-9.80426164,-0.0680417455,-0.166274193,0.050135027,0.0112339314,0.0263594184,0.0505112931,24.4479065,5.36267853,-44.0013123,2
3.25204479,-0.00115542754,0.0110660134,0.0317508657,0.99943389,0.0221947201,-0.00160683657,0.0635341712,0.217637702,0.015757677,-9.8042219,-0.126808133,-0.192329146,0.0228606511,0.0138363726,0.0121133719,0.0360420719,24.417778,5.27070618,-44.0871582,2
3.26200279,-0.00108339672,0.0111217774,0.0318896503,0.999428914,0.0223018224,-0.00145621735,0.0638103379,0.218687814,0.0142806084,-9.80420085,-0.125164768,-0.24876183,-0.0250444249,0.0141053796,0.0121610779,0.0179091785,24.3981018,5.25119781,-44.0766907,2
3.27196079,-0.00101688458,0.0112243782,0.0319233129,0.999426746,0.0225027307,-0.001315965,0.0638763377,0.220657598,0.0129052044,-9.80415877,-0.147185991,-0.294522277,-0.0759632957,0.0139842052,0.0289027747,-0.00359052164,24.5173492,5.21487427,-44.0770874,2
3.28191879,-0.000963400716,0.0114075701,0.0318640871,0.999426642,0.0228654636,-0.00119871335,0.063756847,0.224213902,0.0117553597,-9.80407927,-0.148198474,-0.286339464,-0.0941483562,0.0115179792,0.0423028544,-0.0187061988,24.4628906,5.26461029,-44.0259705,2
3.29187679,-0.00091753516,0.0116262128,0.0317403576,0.999428074,0.0232994948,-0.00109598071,0.063508465,0.228469185,0.0107478974,-9.80398224,-0.121628393,-0.23625087,-0.065514967,0.00902073365,0.0426027291,-0.030866459,24.6063461,5.30621338,-44.0491028,2
3.30183379,-0.000888942788,0.0118161739,0.0315753565,0.999431109,0.0236772658,-0.00103067453,0.0631778484,0.232172844,0.0101074623,-9.80389632,-0.0874737373,-0.144630772,0.0120604401,0.00558880065,0.0333720297,-0.0332833081,24.6063461,5.30621338,-44.0491028,2
3.31179179,-0.000868743813,0.0119554554,0.0314317673,0.999434107,0.0239542945,-0.00098494237,0.0628902122,0.234888806,0.00965898334,-9.80383202,-0.0388640019,-0.0654729088,0.0428214891,0.00581996329,0.0224661194,-0.0234029815,24.4698563,5.20233154,-44.0395203,2
3.32174979,-0.000828268048,0.012036793,0.0313462387,0.999435866,0.0241142782,-0.000900985338,0.0627181849,0.236457279,0.00883564658,-9.80379461,0.000268953134,0.0400967495,0.0571498742,0.0124337673,0.00903803669,-0.0116940551,24.5462952,5.10372162,-44.1952515,2
3.33170779,-0.000756376042,0.0120318208,0.0313279193,0.999436556,0.0240998143,-0.000758035981,0.0626797889,0.236315496,0.00743379299,-9.80379929,0.0233052713,0.0923753918,0.0381505747,0.0183028411,-0.0120728407,0.00370327616,24.4622421,5.27089691,-44.2362061,2
3.34166579,-0.000661027785,0.0119063155,0.0313640737,0.999436989,0.0238429522,-0.000574450157,0.0627497538,0.233797303,0.00563343132,-9.80386125,0.0635321774,0.0923800953,0.0219014507,0.0169356205,-0.0366814658,0.0115589276,24.5473633,5.24407959,-44.0921936,2
3.35162379,-0.0005785713,0.0117172965,0.0314224617,0.999437451,0.023459924,-0.000420119064,0.0628645323,0.230042133,0.00411996058,-9.80395068,0.00638482393,0.0775830698,-0.0109293903,0.0141275842,-0.0383478068,0.0147083821,24.3724747,5.26284027,-44.1367493,2
3.36158179,-0.000480628503,0.0115375334,0.0315178575,0.999436481,0.0230944138,-0.000233438655,0.063053057,0.226458704,0.00228925115,-9.80403485,-0.00738970839,0.102308337,-0.09135025,0.0182062089,-0.0301750936,0.0261694901,24.4722748,5.39402008,-44.4476013,2
3.37153979,-0.000340270897,0.0114337721,0.0316888397,0.999432371,0.0228781253,4.44904452E-05,0.0633919341,0.224338204,-0.000436302208,-9.80408395,0.0285488893,0.118052361,-0.191109432,0.0314642228,-0.0098559726,0.0441578105,24.3780899,5.3832016,-44.2377319,2
3.38149779,-0.000152066512,0.0114198072,0.0319432443,0.999424508,0.0228381727,0.000425613398,0.0638966719,0.223946483,-0.00417384163,-9.80409155,0.0326815504,0.0893185341,-0.166859957,0.0404430963,0.00252614985,0.0554001778,24.4922028,5.3224411,-44.238739,2
3.39145579,4.10548556E-05,0.01144067,0.0322294499,0.999415097,0.0228673108,0.000819514775,0.0644649203,0.224232095,-0.00803669364,-9.80408278,-0.0442185147,0.0708853851,-0.0736450819,0.0347729586,0.00331630954,0.060258314,24.3527527,5.33293152,-44.0540771,2
3.40141279,0.000170150726,0.0114733984,0.0325403498,0.99940459,0.0229240819,0.00108679585,0.0650840228,0.224788633,-0.0106578239,-9.80406758,-0.0583920745,0.0206844441,0.0111842418,0.0178880766,0.0103721721,0.0636682734,24.4467087,5.28905487,-44.4718933,2
3.41137079,0.00021460667,0.0115213883,0.0328415291,0.999394234,0.0230167703,0.00118571363,0.065685595,0.225697327,-0.0116278757,-9.80404537,-0.0715710521,-0.0796501584,0.0505173043,0.00154985057,0.00639846921,0.0556484275,24.3894958,5.15138245,-44.1701965,2
3.42132879,0.000196451032,0.011521043,0.0330621677,0.999386988,0.0230170183,0.00115448278,0.0661275016,0.225699757,-0.0113216056,-9.80404595,-0.157615104,-0.112876712,0.0562035333,-0.00681034476,-0.00691334158,0.0332126282,24.405838,5.12523651,-44.1316528,2
3.43128679,0.000169699039,0.0114631817,0.0331830829,0.999383663,0.0229029868,0.00109995653,0.0663701273,0.224581804,-0.0107868868,-9.80407226,-0.188220323,-0.121192577,0.0122363812,-0.00147629948,-0.0160397291,0.0163705312,24.5029602,5.21520233,-44.2297974,2
3.44124479,0.000197455934,0.0113543105,0.0332403001,0.999382904,0.0226834408,0.0011495098,0.0664841024,0.222429339,-0.011272838,-9.80412077,-0.16841062,-0.118910978,-0.0647784694,0.0147692952,-0.0287347026,0.00981049147,24.5710907,5.30016327,-43.9514771,2
3.45120279,0.000337296973,0.0111703029,0.0332902366,0.99938334,0.0223062441,0.00141790248,0.0665811291,0.21873116,-0.0139048681,-9.80420027,-0.0834592593,-0.0688438237,-0.12649872,0.0406730622,-0.0479219779,0.0115503352,24.510231,5.2547226,-44.1500244,2
3.46116079,0.000599633928,0.010912219,0.0333450145,0.999384185,0.0217727692,0.00192626672,0.0666854106,0.213500657,-0.018890212,-9.80430724,-0.0355820211,-0.00101068744,-0.159312026,0.0599034727,-0.0600044876,0.0129990811,24.3954239,5.20358276,-44.1124878,2
3.47111879,0.000937308895,0.010628802,0.0334295331,0.999384191,0.0211835008,0.00258409804,0.0668479674,0.20772295,-0.0253413163,-9.80441713,-0.0330963235,-0.00308892876,-0.158304894,0.0717912912,-0.0540419333,0.0211638007,24.4270859,5.28097534,-44.2393188,2
3.48107679,0.00130921431,0.010450698,0.0335369932,0.99938202,0.0208022799,0.00331778655,0.0670557816,0.203984842,-0.0325363127,-9.80447441,-0.0194821328,-0.0274674713,-0.138495447,0.0699832439,-0.0184048694,0.0217895433,24.3223724,5.12978363,-44.1440735,2
3.49103479,0.00162119327,0.0104755602,0.0336247641,0.999378323,0.0208307397,0.00394485753,0.0672248998,0.204263403,-0.0386857365,-9.80444635,-0.09682406,0.0193833806,-0.0580184737,0.0522380695,0.0216187127,0.0135776866,24.1851273,5.04946136,-44.2969055,2
3.50099179,0.00180880703,0.0106383879,0.0336732674,0.999374687,0.021143428,0.00433182402,0.067317399,0.2073288,-0.0424805485,-9.80436627,-0.162288338,0.0309593526,0.0620604426,0.0215099771,0.0391268544,0.00523984898,24.2865524,4.99172974,-44.198822,2
3.51094979,0.00182773776,0.0108373677,0.0336534969,0.999373172,0.0215400019,0.00438262884,0.0672765728,0.211216894,-0.0429787712,-9.80428093,-0.165577881,0.00392425164,0.168068163,-0.0109161399,0.0411042497,-0.0150238769,24.410965,5.0715332,-44.1217651,2
3.52090779,0.00169987719,0.0110337813,0.0335338291,0.9993753,0.0219417186,0.00413765223,0.0670390258,0.215155639,-0.0405763908,-9.80420553,-0.184630025,-0.014788623,0.182806883,-0.0362521261,0.0384272411,-0.035797067,24.3801575,4.97892761,-44.2572021,2
3.53086579,0.00149957799,0.0111796203,0.0333211556,0.999381134,0.0222474588,0.00374234438,0.0666172674,0.218153524,-0.0366997754,-9.80415468,-0.14213806,-0.0243514696,0.113473819,-0.0400388688,0.0232158005,-0.0506564379,24.5227127,5.02384186,-44.2605896,2
3.54082379,0.00131968069,0.0112543784,0.0330465743,0.999389585,0.022409799,0.00338159402,0.0660715389,0.219745397,-0.0331620457,-9.80413188,-0.0859698538,-0.0480902781,0.0130441905,-0.0277643986,0.00981207285,-0.0594319329,24.4945297,5.1700058,-44.1908264,2
3.55078179,0.00122879081,0.011272723,0.0327462597,0.999399398,0.0224534297,0.00319439005,0.0654725811,0.220173303,-0.0313262109,-9.80412779,-0.046893433,0.0226481317,-0.047263271,-0.00733768754,-0.0036398205,-0.0601693615,24.5841751,5.30851746,-44.160553,2
3.56073979,0.00123825677,0.0112151687,0.032465162,0.99940924,0.0223386585,0.00320326054,0.0649100957,0.219048062,-0.0314132019,-9.80415292,-0.000577617225,0.097853193,-0.068786536,0.011920182,-0.0201141089,-0.0533194207,24.4705658,5.25795746,-44.163208,2
3.57069779,0.00132908098,0.0111046861,0.0322261578,0.999418084,0.0221127137,0.00337234427,0.0644302264,0.216832742,-0.0330713375,-9.80419676,0.0118130595,0.171038101,-0.0663484952,0.0234261043,-0.0239999294,-0.0413730107,24.4823227,5.2822113,-44.1564331,2
3.58065579,0.00146292456,0.0110194126,0.0320399077,0.999424806,0.0219343079,0.00363029609,0.0640549321,0.215083414,-0.0356009656,-9.80422657,0.0339131015,0.182097072,-0.0700596247,0.0290374011,-0.010109134,-0.031481944,24.4394836,5.34999084,-44.118103,2
3.59061379,0.00160703052,0.0110312529,0.0319185515,0.999428313,0.0219492355,0.00391643684,0.0638089339,0.215229545,-0.0384070291,-9.80421254,0.0397524752,0.189990803,-0.0597486585,0.0276088808,0.0124675473,-0.0180241931,24.4632034,5.28734589,-44.3645935,2
3.60057079,0.00172378555,0.0111504468,0.0318443889,0.999429149,0.0221803876,0.00415577335,0.0636575127,0.21749559,-0.0407540991,-9.80415292,0.0235701145,0.146399142,-0.0464899485,0.0200240891,0.0339591466,-0.0120657077,24.4953003,5.19687653,-44.4151001,2
3.61052879,0.00179650508,0.0113723304,0.0317969349,0.999428066,0.0226195449,0.00431417908,0.0635600155,0.221800977,-0.0423075117,-9.80405005,0.006994462,0.12326235,-0.0127753104,0.0108489655,0.0551368706,-0.00809253845,24.4348602,5.24887085,-44.3126221,2
3.62048679,0.00180323244,0.0116777902,0.0317591631,0.999425691,0.0232299373,0.00434616102,0.0634829624,0.227785221,-0.0426211442,-9.80391151,0.0259996798,0.0445673327,0.0617553222,-0.00263193529,0.0668486804,-0.00759077258,24.51651,5.20005798,-44.2137756,2
3.63044479,0.00173553951,0.0119995635,0.0317041853,0.999423791,0.0238777333,0.00422996434,0.0633731602,0.234136234,-0.0414816553,-9.80376655,0.0138128002,0.00691626849,0.151692783,-0.0192327499,0.0595582761,-0.0161395185,24.5918427,5.41109467,-44.1760254,2
3.64040279,0.00157620471,0.0122264876,0.0316038614,0.999424485,0.0243418649,0.00392341367,0.0631753037,0.238686737,-0.0384754456,-9.80366952,-0.0446072218,-0.00566675249,0.198132462,-0.0374526046,0.033928439,-0.0246504471,24.6903381,5.32609558,-44.153717,2
3.65036079,0.0013546187,0.0123242163,0.0314660246,0.999428004,0.0245517002,0.00348328296,0.0629045215,0.240744291,-0.0341592674,-9.80363504,-0.0159890666,-0.0454470427,0.174904147,-0.0485712998,0.00687524769,-0.0319126211,24.6903381,5.32609558,-44.153717,2
3.66031879,0.00110097179,0.0122910573,0.0312784042,0.999434556,0.0245019011,0.0029695922,0.0625353986,0.240256471,-0.0291217094,-9.80366309,0.0105357148,-0.111536741,0.0975695629,-0.0531406961,-0.0162158962,-0.0443134904,24.6044388,5.27862549,-44.1620483,2
3.67027679,0.000849042372,0.0121636113,0.0310292885,0.999444149,0.0242634635,0.00245199973,0.0620434104,0.237919242,-0.0240458788,-9.80373382,-0.0227408241,-0.148485383,-0.00156885675,-0.0455275178,-0.0301207919,-0.0547618717,24.5942307,5.43799591,-44.0937195,2
3.68023479,0.000668336698,0.0120318249,0.0307489013,0.999454553,0.0240117822,0.0020758766,0.0614870448,0.235452011,-0.0203573813,-9.80380221,0.000226739694,-0.103691297,-0.129291566,-0.0269554947,-0.0185763258,-0.0557066426,24.5584335,5.44842529,-44.0050354,2
3.69019279,0.000578100363,0.0119789491,0.0305074834,0.999462651,0.0239120729,0.00188647574,0.0610062738,0.234474563,-0.0184999968,-9.8038291,0.0709353298,-0.0537740731,-0.202138191,-0.00794878136,-0.00267272769,-0.041266717,24.5198898,5.35147858,-43.9924622,2
3.70014979,0.000552000835,0.0119912971,0.0303374834,0.999467708,0.0239386622,0.00183098659,0.0606667398,0.23473526,-0.0179558343,-9.80382384,0.121102487,0.00733246064,-0.163985863,-0.00236174464,0.00944678485,-0.0279621724,24.6780167,5.37966156,-44.2774963,2
3.71010779,0.000540754563,0.012075365,0.0302344953,0.999469796,0.024107601,0.00181112183,0.0604607984,0.236391521,-0.0177610287,-9.80378409,0.135607087,0.015517362,-0.0651145695,-0.00244376995,0.0258526541,-0.014364074,24.6557693,5.45667267,-44.2683411,2
3.72006579,0.000503819835,0.0122404436,0.0301895466,0.999469145,0.0244399415,0.00174617253,0.0603714647,0.239649737,-0.0171240939,-9.80370635,0.134443834,-0.015795285,-0.027184944,-0.00918529555,0.0399080217,-0.00373885967,24.7467575,5.43834686,-44.081604,2
3.73002379,0.000439493088,0.0124025589,0.0301821428,0.99946741,0.0247679423,0.00162719037,0.0603579559,0.242865393,-0.0159572798,-9.80362919,0.0815484755,-0.0230972386,0.041870472,-0.0140791098,0.0230510235,-0.00202057487,24.6241684,5.46188354,-44.1250305,2
3.73998179,0.00034948165,0.0124876313,0.0301785729,0.999466463,0.0249434563,0.00145230867,0.0603529106,0.244586116,-0.0142422777,-9.80358886,0.0469074615,-0.00266587533,0.0723562112,-0.0187648609,0.012739867,0.00219497434,24.7716293,5.45057678,-43.9653625,2
3.74993979,0.000264538622,0.0125080814,0.030200327,0.999465535,0.0249894357,0.00128429112,0.0603985195,0.245036946,-0.0125945904,-9.80358009,0.0699497528,-0.0275073901,0.04945289,-0.017387474,-0.00416694395,0.00610449445,24.6974411,5.58630371,-43.9060669,2
3.75989779,0.000210639761,0.0124389577,0.0302375971,0.999465392,0.024854453,0.00117330296,0.0604745192,0.243713662,-0.0115061684,-9.80361458,0.075911803,-0.0167744414,-0.00228723415,-0.00662926771,-0.0242372155,0.00862171128,24.7540512,5.61889648,-43.9048157,2
3.76985579,0.000223065848,0.0122987966,0.030282941,0.999465747,0.0245734322,0.0011907811,0.0605651004,0.240958628,-0.0116775703,-9.80368238,0.0635534394,-0.0112160869,-0.056837155,0.00816991925,-0.0306096263,0.00992026832,24.7002258,5.55490875,-43.9718323,2
3.77981379,0.000281718538,0.0121759794,0.0303345049,0.999465716,0.0243242755,0.00130184102,0.0606669933,0.238515929,-0.0127666956,-9.80374083,0.0990660302,-0.0176088418,-0.0882025996,0.0107164336,-0.0208949484,0.0101208044,24.7452621,5.52791595,-44.0218201,2
3.78977179,0.000296312863,0.0121006534,0.03037498,0.999465306,0.0241727408,0.00132742345,0.0607477156,0.237030312,-0.0130175731,-9.80377649,0.0930697855,-0.0459387489,-0.00526771127,-0.00846098922,-0.0125059905,0.00396703836,24.6095657,5.61045074,-44.1943359,2
3.79972879,0.000174354472,0.0120376373,0.0303765885,0.999466105,0.024054162,0.00107984769,0.0607539462,0.235867862,-0.010589686,-9.80380747,0.0508373301,-0.0568959771,0.0706295335,-0.0414127037,-0.0149069885,-0.00223113224,24.6515732,5.49381256,-44.2732849,2
3.80968679,-8.69152684E-05,0.0119873325,0.0303804927,0.999466643,0.0239694578,0.000554624339,0.0607680645,0.23503753,-0.00543900644,-9.80383144,0.0440361256,-0.0111698708,0.04775953,-0.0626602024,-0.00250304956,0.00375245791,24.5029068,5.44972229,-44.3137512,2
3.81964479,-0.000389947799,0.0120111339,0.0304412668,0.999464365,0.0240354558,-4.82095982E-05,0.060896922,0.235684614,0.00047277464,-9.80381741,0.0403963078,0.0100027564,-0.0950087725,-0.0556569584,0.0146614835,0.0196923167,24.5619049,5.54090881,-44.3713074,2
3.82960279,-0.000606432141,0.0121113317,0.0305620186,0.999459437,0.0242490162,-0.000471915181,0.0611437833,0.237778281,0.00462790697,-9.80376597,-0.0172129093,0.0097382009,-0.24649405,-0.0303854253,0.026184449,0.0275268033,24.6518173,5.57884979,-44.1732483,2
3.83956079,-0.000699175961,0.0122446836,0.0307029165,0.999453324,0.0245213753,-0.000645692529,0.0614280239,0.240448395,0.00633207997,-9.80369992,-0.0424783017,0.0122238802,-0.300280001,-0.00757248513,0.0274833087,0.0277263876,24.6843109,5.53886414,-44.0200195,2
3.84951879,-0.000702900304,0.0123978936,0.0308489866,0.999446972,0.0248279977,-0.000640098299,0.0617204731,0.243454427,0.00627721939,-9.80362568,-0.0722694645,-0.0492223143,-0.269379251,0.00588659756,0.0350807756,0.0284478385,24.6772079,5.50691986,-43.8910522,2
3.85947679,-0.000663678336,0.0126287555,0.030986736,0.999439914,0.0252871937,-0.00054396544,0.0619952381,0.247956195,0.00533447863,-9.80351346,-0.0935306445,-0.115317218,-0.210833538,0.00971404649,0.0558776185,0.0272769872,24.7114868,5.43865204,-44.0783081,2
3.86943479,-0.000640426375,0.0129301307,0.0311206555,0.999431825,0.0258883238,-0.000475336733,0.0622627364,0.253849345,0.00466146075,-9.80336265,-0.0723394062,-0.125118838,-0.074514266,0.00192563189,0.0631488413,0.0263882894,24.7360077,5.54743195,-44.0746765,2
3.87939279,-0.000668600829,0.0132272889,0.031248951,0.99942392,0.0264842234,-0.000509753541,0.0625203157,0.259691111,0.00499897448,-9.8032095,-0.0603742979,-0.100616502,0.0713788906,-0.00966580398,0.054886099,0.0252488907,24.6636429,5.38150024,-44.1363831,2
3.88935079,-0.00074837796,0.0134586857,0.0313772125,0.999416741,0.0269519042,-0.00065129089,0.0627792103,0.264275845,0.00638698107,-9.80308617,-0.0899485117,-0.0448429485,0.165676884,-0.0203125887,0.038656529,0.0268068407,24.8265076,5.54216003,-43.9329529,2
3.89930779,-0.000876454895,0.0135983742,0.0315271149,0.999410034,0.0272393468,-0.000894440738,0.0630827224,0.267093606,0.00877146619,-9.80300784,-0.0917188093,-0.0253803423,0.22171266,-0.0290188491,0.01745365,0.0331341624,24.6877136,5.43437195,-43.8661804,2
3.90926579,-0.00100827962,0.0136335404,0.0317128658,0.999403563,0.0273181843,-0.00115063946,0.0634580184,0.26786638,0.0112839165,-9.80298446,-0.0610676504,-0.030885543,0.195352476,-0.0254669916,0.000867749564,0.0381555483,24.719368,5.38645935,-44.0285645,2
3.91922379,-0.0011202451,0.0135978217,0.0319092062,0.99939772,0.0272541559,-0.00137134984,0.0638538849,0.267238622,0.013448344,-9.80299908,-0.0722612994,-0.0379880114,0.136260236,-0.0230867397,-0.0120377475,0.0389060564,24.7101669,5.48996735,-44.0463867,2
3.92918179,-0.00123419547,0.013490793,0.0320986045,0.999392967,0.0270477717,-0.00160082197,0.0642357882,0.265215354,0.0156986939,-9.80305051,-0.0654495918,-0.123436867,0.0791501091,-0.0267315414,-0.0288561434,0.0343408659,24.6697235,5.42809296,-44.0697937,2
3.93913979,-0.00134918053,0.0133218594,0.0322388461,0.999390617,0.0267176982,-0.00183775502,0.06451921,0.261979496,0.0180222095,-9.80313352,-0.120273142,-0.170202746,0.00127191963,-0.0249379035,-0.0343422517,0.0197241083,24.7074356,5.43888855,-43.9032898,2
3.94909779,-0.00144101243,0.0131363245,0.0323194271,0.99939033,0.0263528813,-0.00203115221,0.0646825322,0.258403044,0.0199187844,-9.8032247,-0.133306464,-0.12885406,-0.0852770675,-0.0113744242,-0.0388531163,0.0130137419,24.6956863,5.41385651,-44.14505,2
3.95905579,-0.00144210214,0.0129250137,0.0323907681,0.99939073,0.0259306594,-0.0020451462,0.0648248729,0.25426388,0.0200560192,-9.80333284,-0.0775423086,-0.0647967631,-0.188568515,0.0119501408,-0.0464614257,0.0158504285,24.7414322,5.41099548,-44.0845337,2
3.96901379,-0.00130980419,0.0126881572,0.0324855364,0.999390871,0.0254487441,-0.00179365048,0.0650106231,0.249539592,0.017589693,-9.8034591,-0.0533651498,-0.0138478521,-0.220913618,0.0375694856,-0.0497986302,0.0247046389,24.4994888,5.30173492,-44.2418213,2
3.97897179,-0.0010715349,0.0124385155,0.0326232607,0.999389835,0.0249343715,-0.0013301927,0.0652797791,0.244497104,0.0130447305,-9.80359295,-0.0365012914,0.0436688221,-0.239035551,0.0534730144,-0.0519880913,0.0332862549,24.5558395,5.2099762,-44.3306274,2
3.98892979,-0.000792196211,0.0122049971,0.0328032371,0.999386997,0.0244494473,-0.00078269444,0.0656327252,0.239743206,0.00767560981,-9.80371628,-0.0428205758,0.0566694611,-0.216915489,0.052581653,-0.0413623452,0.0414999761,24.5569839,5.27154541,-44.4328613,2
3.99888779,-0.000538076993,0.0120560509,0.0330101869,0.999382143,0.0241350719,-0.000279544096,0.0660405532,0.236661223,0.00274139111,-9.80379344,-0.069217219,-0.00274049121,-0.211151518,0.0445393771,-0.0200326182,0.0418230742,24.5998154,5.1987381,-44.524353,2
4.00884479,-0.000358393859,0.0120287096,0.0331917728,0.999376553,0.0240685359,8.21675532E-05,0.0663995621,0.236008915,-0.00080578847,-9.80380981,-0.106123931,-0.0728150106,-0.194525962,0.0263971258,0.00620085187,0.0327475555,24.5998154,5.1987381,-44.524353,2
4.01880279,-0.000280216569,0.0121314207,0.0333393174,0.999370416,0.0242686333,0.000248826275,0.0666928858,0.237970625,-0.00244015227,-9.80376188,-0.0874356703,-0.163656685,-0.181255562,0.00718860701,0.0320761837,0.026142858,24.5774155,5.23825073,-44.3955078,2
4.02876079,-0.000248770515,0.0123242718,0.0334644305,0.999363857,0.0246520117,0.000327624958,0.0669424069,0.241729155,-0.00321290334,-9.80366952,-0.0477992775,-0.191763987,-0.188680743,0.00774813723,0.0443778597,0.0236823633,24.7044449,5.36099243,-44.3869629,2
4.03871879,-0.000193297055,0.0125416801,0.0335805904,0.999357343,0.0250828548,0.000455968394,0.0671733806,0.245952965,-0.00447152224,-9.80356431,-0.0621984263,-0.126161205,-0.136113521,0.0164848939,0.0379894562,0.0236362796,24.5973053,5.24492645,-44.2357788,2
4.04867679,-8.00137119E-05,0.0126929556,0.0337287085,0.999350464,0.0253775496,0.000696310573,0.067466819,0.248841983,-0.00682847376,-9.80349007,-0.0531164357,-0.0745734853,-0.0734895991,0.0301035028,0.0214315169,0.0357643142,24.6405945,5.2329483,-44.3483276,2
4.05863479,8.2785663E-05,0.0127333154,0.0339210614,0.999343432,0.0254470537,0.00102931795,0.0678475493,0.24952328,-0.0100941587,-9.80346962,-0.00052676382,-0.0888153977,0.00968845032,0.0336243175,-0.0096200211,0.0397506207,24.5487671,5.17947388,-44.1855774,2
4.06859279,0.000272159418,0.0125885196,0.0341158117,0.999338594,0.0251444914,0.00140289441,0.0682326422,0.246556996,-0.0137576896,-9.80354034,-0.0252434363,-0.137525032,0.0744026223,0.0386824608,-0.0414993912,0.0375926606,24.4737701,5.05831146,-44.1186218,2
4.07855079,0.000464260209,0.0123957952,0.0342614691,0.99933597,0.0247458802,0.0017773011,0.0685196386,0.242649028,-0.0174293605,-9.80363211,-0.110070568,-0.152707695,0.0388806425,0.0345440023,-0.037080843,0.0233202297,24.4994736,5.06129456,-44.1398315,2
4.08850879,0.00063801006,0.0122077761,0.0343458667,0.999335271,0.0243579594,0.00211374679,0.0686846395,0.238845837,-0.0207287605,-9.80371921,-0.138888374,-0.125466281,0.0563256983,0.0327109471,-0.0411184616,0.0128580015,24.575676,5.00867462,-44.139679,2
4.09846679,0.000821672278,0.0120297071,0.0343959196,0.999335571,0.0239892781,0.00246980086,0.0687807911,0.235231172,-0.0242204477,-9.8037987,-0.0975650328,-0.107908659,-0.0232020119,0.0391265042,-0.0311571825,0.0101903751,24.7019882,5.0486145,-44.0729675,2
4.10842379,0.00103867942,0.0119417323,0.0344422164,0.999334831,0.0237983756,0.00289858056,0.0688685211,0.233359332,-0.0284253246,-9.80383202,-0.0353892385,-0.136025505,-0.0755418555,0.0444994308,-0.00397509616,0.00801803544,24.6187057,5.1027832,-44.2888489,2
4.11838179,0.00123736266,0.0120279177,0.0344326206,0.999333882,0.0239570222,0.0033013883,0.0688443468,0.234914379,-0.0323755007,-9.80378234,-0.0903649287,-0.133870975,-0.054192778,0.0332209617,0.0362109579,-0.013558872,24.7074814,5.07756805,-44.2091064,2
4.12833979,0.00132457496,0.0122393925,0.0343217668,0.999335022,0.0243741452,0.00348755051,0.0686197187,0.239003585,-0.0342011178,-9.80367771,-0.174959147,-0.0925410307,0.0984820015,0.00580717996,0.0412576497,-0.0296219941,24.683548,5.24996185,-44.1799316,2
4.13829779,0.00128560011,0.0124110275,0.0341740663,0.999337991,0.0247204162,0.00341777526,0.0683245198,0.24239836,-0.0335168596,-9.80359646,-0.0966517904,-0.0478851018,0.164690211,-0.0161060616,0.0290234033,-0.0266513787,24.7331467,5.18244171,-44.216095,2
4.14825579,0.00120491039,0.0125402814,0.0340554187,0.999340639,0.0249846905,0.0032623667,0.0680886685,0.244989326,-0.0319928307,-9.80353742,0.0427633292,-0.0335475424,0.070509122,-0.0110652316,0.0243673977,-0.0195439346,24.4672623,5.01687622,-43.9992981,2
4.15821379,0.001183125,0.0126072772,0.03396889,0.999342779,0.0251203761,0.00322121085,0.067915849,0.246319552,-0.031589232,-9.80350527,0.0308088336,-0.0159946287,-0.0840986714,0.000376976794,0.00159383961,-0.0147589166,24.7466049,5.14032745,-43.871521,2
4.16817179,0.00122223529,0.0125456874,0.033916688,0.999345246,0.0249947758,0.00329389233,0.0678106186,0.245088165,-0.0323019902,-9.80353391,0.0811213544,0.0746503317,-0.0948439373,0.0105856722,-0.0244630612,-0.00438963249,24.6434097,4.90627289,-44.1158752,2
4.17812979,0.00128835047,0.0123902685,0.0339300987,0.999346686,0.024679569,0.00341583026,0.0678363486,0.241997908,-0.0334977873,-9.80360639,0.152296722,0.0819812683,-0.0814537098,0.0108307833,-0.0373012573,0.00963962823,24.73452,4.93178558,-44.2857971,2
4.18808779,0.00132116473,0.0121929135,0.0340235741,0.999345864,0.0242825063,0.00347030096,0.0680232747,0.238105211,-0.0340319581,-9.80369992,0.145415529,0.0832636271,-0.0943786579,-0.00222136895,-0.0384096652,0.027874561,24.6026077,4.93637848,-44.2208862,2
4.19804579,0.00131906629,0.0120298904,0.0342064499,0.999341538,0.0239561318,0.00345940204,0.0683898242,0.23490552,-0.0339250774,-9.80377766,0.12377536,0.0897408055,-0.14966683,-0.00155215361,-0.0258971043,0.0453210808,24.6608582,4.99945831,-44.2419434,2
4.20800279,0.00136151119,0.0119306725,0.0344715371,0.999333569,0.0237539593,0.00354375234,0.0689196207,0.232923388,-0.0347522672,-9.80382208,0.100917649,0.0771006109,-0.25676293,0.0173296593,-0.0114886034,0.0611226819,24.6162338,5.05192566,-44.4133606,2
4.21796079,0.00153576163,0.0119038495,0.0348041469,0.999322139,0.0236870539,0.00389805772,0.0695812074,0.232267152,-0.0382267909,-9.80382442,0.0514452693,0.0822211506,-0.308384981,0.0486885384,-0.00118014903,0.0721387714,24.6865082,5.05098724,-44.2575378,2
4.22791879,0.00184176144,0.011902166,0.0351536031,0.999309383,0.0236608523,0.00451780239,0.0702733501,0.232009689,-0.0443043572,-9.80380513,-0.0214700187,0.0633092325,-0.245407424,0.0704433694,-0.00551098166,0.0687789321,24.5453568,4.89656067,-44.4143066,2
4.23787679,0.00220067268,0.0118570133,0.0354706868,0.999298012,0.023543759,0.00523943246,0.0708997436,0.230860902,-0.051381045,-9.80379753,-0.0785302967,0.00319864078,-0.111339145,0.0711446553,-0.0172437318,0.0586729944,24.7582474,4.89788055,-44.3239746,2
4.24783479,0.00254505247,0.0117709722,0.0357375213,0.999288656,0.023345821,0.00592784958,0.0714262549,0.228919468,-0.0581320034,-9.80380513,-0.100530879,-0.0994354846,-0.0142167414,0.063301906,-0.0191726591,0.0496872216,24.6538391,4.94107056,-44.1733704,2
4.25779279,0.00282997513,0.0117220888,0.035944121,0.999281022,0.0232264584,0.00649860698,0.0718334864,0.227748451,-0.0637291156,-9.80379812,-0.14140801,-0.122718435,0.0246814368,0.0501389652,-0.00378890918,0.0361471772,24.6683502,4.78565216,-44.362854,2
4.26775079,0.00306566953,0.0117518097,0.0361058736,0.999274167,0.0232678479,0.00697556401,0.0721516185,0.228153507,-0.0684063593,-9.8037572,-0.17099238,-0.0743470151,0.0491810873,0.0442240834,0.0127224233,0.0298645161,24.7019806,4.85752106,-44.1866455,2
4.27770879,0.00326222686,0.0118563671,0.0362545121,0.999266974,0.0234616024,0.00737943171,0.0724438366,0.230052344,-0.0723668467,-9.80368414,-0.151792334,-0.0471927036,0.072152213,0.0373847969,0.0267431438,0.0299823955,24.7109299,4.91082001,-44.2124939,2
4.28766679,0.00342581744,0.0120093734,0.0363895227,0.999259696,0.0237545798,0.00772067002,0.0727090953,0.232923991,-0.0757131569,-9.8035912,-0.13910167,-0.0846974593,0.146429163,0.0279934257,0.03076851,0.0228624325,24.7818756,4.96385193,-44.2318726,2
4.29762479,0.00351790483,0.0121340409,0.0364732029,0.999254824,0.0239964339,0.00791578409,0.0728734385,0.235294665,-0.0776265162,-9.8035193,-0.210754555,-0.0703641788,0.262176772,0.00854644366,0.0175016597,0.0123100644,24.8005447,4.98775482,-44.380127,2
4.30758279,0.00352127457,0.0121790323,0.0364944779,0.999253482,0.0240859519,0.00792630959,0.0729155795,0.236172252,-0.07772973,-9.80349767,-0.212529949,-0.068016401,0.317221783,-0.00571877882,0.00212563272,-0.00139296497,24.6641312,4.91293335,-44.4533081,2
4.31753979,0.00344743615,0.012128015,0.0364703554,0.999255282,0.0239895334,0.00777444192,0.0728694414,0.235227281,-0.0762404641,-9.80353216,-0.162354206,-0.0519980627,0.308427651,-0.0225684326,-0.0209651329,-0.00855213124,24.6881638,4.95983124,-44.4437561,2
4.32749779,0.00333012283,0.0119630708,0.0364041381,0.999260065,0.0236688576,0.00752639913,0.0727409156,0.23208396,-0.0738080631,-9.80362568,-0.125392787,-0.0415616298,0.242979904,-0.0264880732,-0.0431308895,-0.0186572298,24.638504,4.89311981,-44.3535461,2
4.33745579,0.00323832973,0.0116932259,0.0362993542,0.999267399,0.0231369044,0.00732089314,0.0725353206,0.226869202,-0.071792796,-9.80376246,-0.0886045132,-0.0489638506,0.123556822,-0.013315198,-0.0621055737,-0.0245276038,24.7064362,5.01717377,-44.4169006,2
4.34741379,0.003230231,0.0113660128,0.0361608834,0.999276243,0.022484447,0.00727786056,0.0722607757,0.220472688,-0.0713708032,-9.80391151,-0.0274406358,-0.0221517996,-0.0168044198,0.00347097218,-0.0674795657,-0.0297159739,24.5511856,5.02394867,-44.3809814,2
4.35737179,0.00327732648,0.0110400094,0.0360177584,0.999284833,0.0218304669,0.00734530412,0.0719757048,0.214060976,-0.0720321805,-9.80404888,0.0189243346,0.0187620886,-0.106898532,0.00804525428,-0.0630453676,-0.0273003746,24.5511856,5.02394867,-44.3809814,2
4.36732979,0.00330352159,0.0107770132,0.0358826201,0.999292489,0.0213038896,0.00737585045,0.0717066451,0.208898296,-0.0723317297,-9.80415818,0.0640402365,0.0630550888,-0.115617845,-0.00375041855,-0.0417310223,-0.0250643846,24.6321869,5.09210205,-44.1178894,2
4.37728779,0.00323275695,0.0106371366,0.0357729178,0.999298162,0.0210301504,0.00722208178,0.0714895891,0.206214738,-0.070823814,-9.80422599,0.0873737841,0.115865628,-0.166576464,-0.0273816474,-0.0131943906,-0.0186171904,24.6944504,5.03316498,-44.3797607,2
4.38724579,0.0030327732,0.010656716,0.035720609,0.999300404,0.0210839089,0.00682268467,0.0713888813,0.206742378,-0.0669071611,-9.80424235,0.101959541,0.195596405,-0.221028185,-0.0506781787,0.0231092889,-0.00205632416,24.6580582,5.10138702,-44.2656555,2
4.39720379,0.00275408464,0.0108706833,0.0357467713,0.999298018,0.0215312937,0.00628152761,0.0714456527,0.21112938,-0.0616003371,-9.80418332,0.1113392,0.212735226,-0.274207986,-0.0576852374,0.0659752637,0.00989952404,24.595047,5.05567932,-44.2735901,2
4.40716179,0.00242722223,0.0112778048,0.0358157567,0.999291886,0.0223679953,0.00565888338,0.0715883193,0.21933329,-0.055494394,-9.80404011,0.0631820488,0.182986532,-0.265373522,-0.0670822039,0.0981339961,0.0151523426,24.6098785,4.93538666,-44.2858887,2
4.41711879,0.00206528693,0.0117825817,0.0358930369,0.999284115,0.0234024601,0.00497346263,0.0717484434,0.229475951,-0.0487728079,-9.80384371,-0.00621710268,0.119851574,-0.200178289,-0.0716648921,0.10595417,0.0147275981,24.8194199,5.02989197,-44.1141663,2
4.42707679,0.00169318033,0.0122857029,0.0359807016,0.999275558,0.0244344154,0.00426801681,0.0719303336,0.239593732,-0.0418548178,-9.80363328,-0.00571061447,0.0562209319,-0.145022803,-0.0678733438,0.0991322175,0.019820096,24.8400345,5.07608795,-44.2101746,2
4.43703479,0.00137672286,0.0127207378,0.0360977913,0.999266327,0.0253262945,0.00366981491,0.0721707096,0.248337888,-0.0359885104,-9.80343922,-0.0231337324,0.00321877253,-0.11678572,-0.0498990044,0.0779333264,0.0237585474,24.7535706,5.05854034,-44.1114807,2
4.44699279,0.00120856063,0.0130234528,0.0362252166,0.999258061,0.025943076,0.00335888901,0.0724289181,0.254384694,-0.0329393862,-9.80329484,-0.0615022607,-0.0118013577,-0.11483517,-0.0125332568,0.0452709869,0.0279213339,24.8225174,5.17469025,-44.0136414,2
4.45695079,0.00127406583,0.013126167,0.0363900224,0.99925066,0.0261430736,0.00350155242,0.0727566792,0.256345198,-0.034338428,-9.80323873,-0.0797732825,-0.0422751255,-0.10830723,0.0425090827,-0.00447859522,0.0404854231,24.8953323,5.30434418,-44.2033081,2
4.46690879,0.00165074311,0.0129856417,0.0366153449,0.999243663,0.0258338619,0.00424994948,0.0731984401,0.253313174,-0.0416776437,-9.803289,-0.00790797838,-0.0892543554,-0.0847632728,0.106099248,-0.0562861338,0.0507242121,25.0083084,5.3338089,-44.0799866,2
4.47686679,0.00229581467,0.0126393779,0.0368361284,0.999238805,0.0250933914,0.00551933374,0.0736257627,0.246052535,-0.0541259004,-9.8034135,-0.0795063386,-0.144591938,-0.007276713,0.141115144,-0.0908386484,0.0388921537,24.933815,5.21086884,-43.9362183,2
4.48682479,0.00299571866,0.0121575997,0.0369631818,0.999238174,0.0240781101,0.00688569443,0.0738661057,0.236097177,-0.0675250601,-9.80357483,-0.209761416,-0.180273912,0.212103705,0.125996917,-0.110511154,0.0132959802,24.8284836,5.21564484,-44.0664368,2
4.49678279,0.00350948349,0.0116054853,0.0369377424,0.99924407,0.0229368816,0.00787110325,0.0738074591,0.224907273,-0.0771883532,-9.80376655,-0.295835972,-0.188716765,0.37854339,0.0693009868,-0.116098635,-0.0194927268,24.8148956,5.07561493,-44.3321533,2
4.50674079,0.00370150004,0.0110649449,0.0367673781,0.999255737,0.0218437038,0.00821124059,0.0734666574,0.214189297,-0.0805238543,-9.8039799,-0.316392237,-0.18807474,0.413322442,0.00105668954,-0.100138307,-0.0482799001,24.7345352,4.94190216,-44.4120178,2
4.51669879,0.00357732134,0.0106530221,0.0364772461,0.999271352,0.0210317491,0.00792669829,0.072891935,0.206229314,-0.0777335385,-9.80417338,-0.279252922,-0.173806378,0.28108664,-0.0498626828,-0.0621720068,-0.0660067573,24.698967,4.99486542,-43.9563599,2
4.52665579,0.00327893734,0.0104419394,0.036135269,0.999286977,0.0206340327,0.00730790839,0.0722152082,0.202330973,-0.0716654615,-9.80430081,-0.193652449,-0.109245497,0.0127642045,-0.065987058,-0.0193819348,-0.0690249205,24.5412674,5.14614105,-44.2390747,2
4.53661379,0.00299874541,0.0104452726,0.0358190705,0.999299247,0.0206630214,0.00674161904,0.0715880511,0.202616001,-0.0661121976,-9.80433354,-0.0493875514,-0.0681118333,-0.197892224,-0.0411241725,0.02400936,-0.0568977669,24.5160599,4.9969101,-44.2640381,2
4.54657179,0.00288024809,0.0106306419,0.0355857737,0.999305972,0.0210435355,0.00651314351,0.0711223675,0.206346986,-0.0638716659,-9.804271,0.0429488053,-0.00346435621,-0.286989726,-0.002934444,0.0476427823,-0.039122235,24.4448166,4.89901733,-44.2399597,2
4.55652979,0.00293247729,0.0108751467,0.0354443627,0.999308244,0.0215295045,0.00663187136,0.0708366883,0.211111369,-0.065035965,-9.80416169,0.0721521765,0.0277770967,-0.207192552,0.0269171484,0.0479234345,-0.0203055292,24.6702805,4.89907837,-44.1677246,2
4.56648779,0.0030919864,0.0110992902,0.0353872618,0.999307302,0.0219666689,0.00696529248,0.0707175025,0.215396883,-0.0683056343,-9.80404595,0.0916590054,0.0481054574,-0.0428559759,0.0380395763,0.0386633538,-0.00660622772,24.7300873,4.99612427,-44.3381958,2
4.57644579,0.00324462188,0.0112444304,0.0353669315,0.999305925,0.0222461716,0.00728016604,0.0706724872,0.218136646,-0.0713934077,-9.80396354,0.0423819652,0.0857595173,0.148148827,0.0233988464,0.0146640129,-0.00383387716,24.7831573,4.83792114,-44.1868896,2
4.58640379,0.00329824773,0.0112616431,0.0353468399,0.999306261,0.0222769461,0.00738811341,0.0706309874,0.218438187,-0.0724519814,-9.80394892,-0.0140336947,0.140687624,0.273081613,-0.00283275777,-0.00695739314,-0.00496039446,24.645874,5.0112381,-44.0235901,2
4.59636179,0.00322477534,0.0111928405,0.0353366411,0.999307623,0.0221446659,0.00723618309,0.0706126742,0.217141553,-0.0709620945,-9.80398867,0.00955894219,0.10059124,0.231073193,-0.0264282171,-0.0180905908,0.000661455328,24.5775909,4.90828705,-44.2015991,2
4.60631979,0.00307111198,0.0110842255,0.0353638088,0.999308347,0.0219381908,0.00692199181,0.0706711205,0.215117755,-0.0678810111,-9.80405531,0.0633573871,0.0231402672,0.106042208,-0.0344693661,-0.0235681813,0.00897957291,24.5534592,4.98860931,-44.3180847,2
4.61627779,0.00291284172,0.0109652334,0.0354003118,0.999308852,0.0217112567,0.00659805027,0.0707483536,0.212893339,-0.064704299,-9.80412545,0.0787498943,-0.0262744644,-0.0616314035,-0.0289034136,-0.0169920847,0.00552125927,24.5859375,4.85083008,-44.5908813,2
4.62623479,0.00278122184,0.0109561334,0.0354224295,0.999308535,0.0217022189,0.00633482553,0.0707954717,0.212805094,-0.0621230001,-9.80414415,0.0595348879,-0.0427720559,-0.168154673,-0.0249606036,0.0141700944,0.0024205409,24.4588242,4.98882294,-44.3702393,2
4.63619279,0.00260980702,0.0110847535,0.035427101,0.999307402,0.0219714,0.00600143633,0.0708076981,0.215444612,-0.0588536322,-9.80410675,0.0600377594,-0.0744725731,-0.176122875,-0.0447379053,0.0410942584,0.000407288782,24.5671463,4.93480682,-44.3127441,2
4.64615079,0.00229188668,0.0113390852,0.0354012433,0.999306255,0.0225023914,0.00538345482,0.0707614543,0.220651259,-0.0527934006,-9.80402491,0.0735358129,-0.0935512671,-0.0924070655,-0.0800759196,0.0660286397,-0.0135420831,24.5936584,5.13883972,-44.4155273,2
4.65610879,0.00181312357,0.0117099361,0.0353195944,0.999305788,0.023277869,0.00445092484,0.0706070381,0.228255031,-0.0436485191,-9.80389632,0.0228364117,-0.120951955,-0.0750286452,-0.101513289,0.0889525935,-0.0207945202,24.6323547,4.99674988,-44.3667908,2
4.66606679,0.00129051691,0.0121805685,0.0352210691,0.999304546,0.0242558099,0.0034372709,0.0704203143,0.23784351,-0.0337080462,-9.80370752,0.0262664044,-0.0542779675,-0.139711253,-0.0986969993,0.105315857,-0.0212725587,24.5194397,5.11115265,-44.193512,2
